time,acc_x,acc_y,acc_z,abs_acc
0,0.945816473911586,-1.11566579182121,-10.307015835652,13.0687918205672
0.007997851,0.249475938797692,-0.609435716664891,-3.05509609656684,2.69561280792318
0.015995586,-0.211934206339273,-0.07473592285376,1.32293721122315,1.1968737518095
0.023992461,-0.355232619253882,0.371250395947146,2.08927962653539,2.29405398270576
0.031990273,-0.295199676692713,0.544642971743234,0.7344787482851,0.382412282507876
0.039992266,-0.243220058451554,0.33134906148507,-0.634416532923595,-0.646381112862585
0.047988867,-0.300508824998393,-0.262911273644316,-0.866200541991554,-0.37954252320849
0.055986562,-0.347156279856605,-1.10645434869341,-0.161096615914003,-0.807227037509612
0.063984297,-0.161452302536933,-1.93402622727922,0.587389715986139,0.160060351074594
0.071981289,0.337589801746966,-2.44513433953247,0.682806631058237,0.290992662605068
0.079980469,0.977068972120976,-2.51816897818879,0.0686919958421632,-0.556926413459957
0.087980703,1.4698759367035,-2.31535615856157,-0.758755671633119,-0.539256064139118
0.095979883,1.65616227235899,-2.11647683213768,-1.14936720435208,-0.00726139294460625
0.103975234,1.58821306819981,-2.04329319907585,-0.77886801255538,-0.522428649112904
0.111972578,1.399204206519,-1.96806147174138,0.105044095568877,-0.533731191684699
0.119971562,1.15424621565357,-1.68191461229705,0.891245773986042,0.564774981485234
0.127967734,0.852437723600161,-1.14201622884495,1.09321845480277,0.849074308204394
0.135963711,0.515473554542464,-0.563123070065052,0.683608312717582,0.267473032357098
0.143961562,0.220830004790398,-0.256877924779335,0.0395179141709886,-0.621292524017552
0.151961445,0.0505677758553451,-0.360132986815509,-0.358524821540167,-0.965761760075957
0.159959375,0.0246259299815484,-0.714099074466106,-0.244143351115769,-0.943750263640995
0.167955391,0.0960771290710334,-1.00094771382066,0.251903342650013,-0.332472061684969
0.175953984,0.217993773908182,-1.00103519235977,0.696166135899638,0.290164450440117
0.183951641,0.400017157603122,-0.747090491169104,0.682594975695642,0.267025866429627
0.191949297,0.674354545398034,-0.451206754233221,0.131791229782867,-0.518678386622597
0.199946094,1.00991927456115,-0.286051246802361,-0.633677260068444,-0.758317216997308
0.207941484,1.29156672982068,-0.250996692899058,-1.08314988828081,-0.120796204880763
0.215941211,1.39302542032307,-0.256399212329359,-0.86003298642044,-0.433808497951459
0.223938008,1.25694218336979,-0.276410298000909,-0.0784700904232765,-0.805194035648505
0.231935078,0.921974663242957,-0.341567595310261,0.74075511484153,0.34772184220989
0.239930039,0.503795535444933,-0.424357295449687,1.06196486799377,0.808576855054125
0.247926289,0.142087572329662,-0.445587499719933,0.713537177983149,0.319222123666292
0.255921719,-0.062598862873472,-0.389216396164285,-0.0314975255358179,-0.69364331601155
0.263920859,-0.0837497406079005,-0.310605379047599,-0.653968922795232,-0.674253790894702
0.27191793,0.0403688566708053,-0.208752112943989,-0.72703382083506,-0.588342060828707
0.279917695,0.255731426968908,0.0320782812992217,-0.230481264998394,-0.920384772091329
0.287916523,0.549608009105341,0.509122580757284,0.417760667672735,-0.0855463707598461
0.295915312,0.943369505763249,1.12744186534141,0.688856581589879,0.312466614140671
0.30391375,1.3902446091047,1.62143031655428,0.35283776763834,-0.112659114220486
0.311912891,1.69087960336982,1.77627154483336,-0.349658302613715,-0.702102744165241
0.31991168,1.59033076597138,1.60059866800384,-0.888104110944783,-0.284961607579111
0.327908437,1.02195800909912,1.25603394658688,-0.845375546952542,-0.377834007906804
0.335901758,0.238813350068271,0.856357325683611,-0.24024315403708,-0.821407923408203
0.343897539,-0.347226678429345,0.398570189325364,0.492185198360803,0.046745105960049
0.351891953,-0.490488306931204,-0.130603283952648,0.851267118951123,0.539672225023236
0.359887109,-0.285903330191673,-0.659020747564435,0.630475183822061,0.216010585171344
0.36788375,-0.0154963303251558,-1.05379476622967,-0.00819913173750652,-0.677213002950125
0.375884531,0.159426636291127,-1.21252408061913,-0.694444992936866,-0.652463057575055
0.383881953,0.316922983864104,-1.13563000494295,-1.07295952525637,-0.133734932664776
0.391881992,0.609184852504883,-0.919436193802672,-0.998540102538195,-0.247517138782018
0.399880195,1.05854309791401,-0.666683700589415,-0.589686564951603,-0.832353835359161
0.407878516,1.53915929623877,-0.408730494621768,-0.110889585123384,-0.83744560513696
0.415877266,1.88017289876464,-0.135451156251003,0.192086559287007,-0.400862718395107
0.423874609,1.92679867840819,0.120311893964183,0.212149848250367,-0.362338448582373
0.431870234,1.57065079694354,0.278290757881622,0.0337478424328337,-0.611266606902989
0.439866797,0.834276357397301,0.286408050232388,-0.112826811659039,-0.812881136799486
0.447858398,-0.053429028575934,0.161639427486352,-0.0197802068424885,-0.654601273945695
0.455854453,-0.725266333318029,-0.0341830559296172,0.293366033809062,-0.205661286641993
0.463847226,-0.891517442667918,-0.227033886313667,0.547057511080156,0.140838730666388
0.471839883,-0.546762598910755,-0.345419773264608,0.419589939246444,-0.0578005685797465
0.479835234,0.0253456168876902,-0.331408694685477,-0.155299698467413,-0.845926791076589
0.487832851,0.484924881075638,-0.172090551078154,-0.849872461198383,-0.44402503894572
0.495827851,0.697470579744886,0.0602130112337852,-1.13847216457483,-0.0363224526185449
0.50382457,0.76963786723472,0.236257406815675,-0.744809068306718,-0.578402146892781
0.511825195,0.853301333172203,0.296515781325571,0.0802076259129278,-0.563687939034426
0.519822305,0.964063584137017,0.341265593322046,0.75107654457627,0.374545610828377
0.527817539,1.0020510849813,0.525800960536907,0.824717389672787,0.483432875066786
0.5358125,0.899231960865091,0.844915203418617,0.327283181787251,-0.198927822619945
0.543807148,0.702969973554722,1.0818102344258,-0.314979614850543,-0.843610156213358
0.551803516,0.522473316368387,1.01065661373064,-0.620300052103097,-0.66195254075134
0.559801719,0.419971896147345,0.629016427289139,-0.390758166896578,-0.891165724858352
0.567800234,0.373383750511268,0.180289496711166,0.164606868268395,-0.442763157121798
0.575800156,0.33914011792043,-0.0451213115215679,0.602981297467209,0.163300029051807
0.583799609,0.315930445925285,0.0535623207267715,0.574607989004566,0.125855818158776
0.5918,0.329886523497694,0.32005486961388,0.0518985410040725,-0.58363792157219
0.599798828,0.386390163025517,0.487172401092849,-0.647348243645523,-0.673550770513679
0.607794219,0.463720489873488,0.381866218686678,-1.05133141797419,-0.144311263912448
0.615787851,0.539824505340379,0.0111141393151549,-0.867144504533483,-0.415600372015034
0.623783555,0.605752089251455,-0.491923893513656,-0.212467790497268,-0.987417170446087
0.631776523,0.667892165581521,-0.962045910718151,0.463058852770655,-0.0511071364163105
0.639767031,0.743576267944686,-1.2843277817538,0.712732333679496,0.306183672179862
0.647760195,0.820554886318113,-1.45581447930772,0.414981031305702,-0.117721923893444
0.655754648,0.818876294064831,-1.55534247283227,-0.163482131154696,-0.925878746256291
0.663749258,0.651881980764926,-1.60073726092405,-0.574016333717937,-0.832846087810829
0.671742734,0.356903896080113,-1.45471638771434,-0.499835360043038,-0.912715505193458
0.679736953,0.12797018539438,-0.937795638341641,0.0194217122837568,-0.653765187601459
0.687727695,0.169039569657747,-0.0610251648661207,0.618533427204105,0.1894750528839
0.695722266,0.501516703672423,0.882130977385462,0.871366797668751,0.56246678836573
0.703716758,0.926194486596398,1.49496874237019,0.588021341751625,0.190428446723431
0.711710898,1.1773758984537,1.56670930040234,-0.0430736240060724,-0.593635698490527
0.71970668,1.12243589048631,1.2027575517728,-0.572896036273153,-0.696606887738969
0.727701992,0.837555615086986,0.700740291976732,-0.612370926041645,-0.712109093571413
0.735696133,0.512704913046855,0.317189438278243,-0.121411754427475,-0.80750993135884
0.743691133,0.291838198822975,0.139988514208423,0.545968612348296,0.0881922941427663
0.751687226,0.194099355808118,0.122768244732011,0.888086424322506,0.573219586547102
0.759683203,0.16051706600082,0.165578713744171,0.632331711386872,0.213905022187705
0.767678125,0.1580043585128,0.163889739046477,-0.048889621440113,-0.708592074301396
0.775677266,0.227907403010096,0.0620580313233203,-0.656697686344933,-0.681021867096387
0.783675195,0.4198230734599,-0.0728930999256907,-0.744953924119552,-0.58256547704585
0.791674609,0.694122963792537,-0.0415565398545375,-0.273216951200421,-1.00824275591604
0.799670351,0.932536216058417,0.345175034422303,0.373932665228428,-0.156876610859026
0.80766543,1.0553112398222,1.04428228931407,0.703845436560534,0.330189107946885
0.815659805,1.09060946592879,1.70930661218247,0.479089574849654,0.0559378023022829
0.823654883,1.09712350953632,1.904956397129,-0.134433728251966,-0.628295297387397
0.83165043,1.0444258793651,1.45044291693242,-0.707655545193629,-0.52628986045529
0.839646719,0.823407982527469,0.569587676699662,-0.852920426175102,-0.414370334043299
0.847640664,0.391093848884944,-0.295817618254907,-0.47684988843656,-0.934537726714396
0.855633672,-0.11418842619071,-0.815777531193477,0.165789459242518,-0.437734147384915
0.863625547,-0.428514950734555,-0.950236930203787,0.648072288773133,0.246586838471552
0.871617422,-0.363665669556996,-0.884447878406962,0.66288355281066,0.264207447111894
0.879609219,0.0297693014168352,-0.853141364761106,0.22644384510502,-0.364147534292905
0.887600273,0.505787449256731,-1.0136428393903,-0.337302830483399,-1.09288160870428
0.895595586,0.840329511089609,-1.39328442540332,-0.632174542311538,-0.767091283411774
0.903589609,1.01076136730182,-1.85947603184283,-0.486325670651897,-0.931415143746347
0.911586406,1.16296058331161,-2.15241329286934,-0.0608291934158186,-0.748699598852954
0.919582461,1.41288717183061,-2.05084295639648,0.301628994276979,-0.258770431622067
0.927578828,1.68826942935155,-1.56904098090323,0.337135933877425,-0.213467687077873
0.93557707,1.75513550249137,-0.965190864375971,0.0440292564076766,-0.624029467281315
0.9435725,1.40421097665644,-0.511706347550716,-0.330014731038634,-1.07363992270802
0.951569336,0.641675231767201,-0.261503077043266,-0.477337734283868,-0.954115607993969
0.959563594,-0.274701676912188,-0.0570668928471934,-0.249390699505105,-0.8548015271245
0.967560586,-0.969831273823975,0.263493589617225,0.239974710368919,-0.240479177397752
0.975555625,-1.14984949662181,0.709403536060776,0.687865946096504,0.370761371453866
0.983549922,-0.767071468871522,1.16232700151726,0.791293611094376,0.502496992258532
0.991544648,-0.0714843504560876,1.49291133588499,0.436755410702985,0.00879394771552753
0.999541211,0.525728109686326,1.61363822400003,-0.196246645618146,-0.704470355373303
1.007537695,0.737134328576674,1.45491295407229,-0.711747850821361,-0.519455190581912
1.015532383,0.612674796693632,0.975245410602878,-0.762847523865285,-0.500324913784233
1.023529531,0.459066352199795,0.24122245407943,-0.317692639092251,-0.962932241094991
1.031524414,0.525747188692095,-0.522454712435869,0.296731854027882,-0.282835003539322
1.039518828,0.779161146302295,-1.01488219040038,0.631761087064759,0.189008543792396
1.047512344,0.978365589506945,-1.04131303925076,0.470707174201601,-0.042010483387166
1.055506992,0.937375820256673,-0.642169579841859,0.00464576950879254,-0.706346029047462
1.063501914,0.699506853764792,-0.061037667211495,-0.329828030095382,-1.03482657899718
1.071497305,0.475949109016226,0.409133274527785,-0.220170911054329,-0.891185492201104
1.079493125,0.438576306936571,0.594209265940117,0.263410208339235,-0.291293501098119
1.087490508,0.569236621693402,0.522715250275624,0.746689411657592,0.375584357153513
1.095487539,0.69227323294883,0.364857661884166,0.860654559215815,0.531563727412976
1.103486719,0.648733277430585,0.257763223041814,0.497598509646513,0.0160731504311188
1.111485351,0.439838733465994,0.158680261689646,-0.13244810643979,-0.829770104614029
1.119483164,0.208433499520945,-0.115147234133276,-0.643509775846814,-0.70580378537102
1.127480937,0.102039244537881,-0.669402065438098,-0.727324414681131,-0.603992948185048
1.135478398,0.157590884948052,-1.36315973020157,-0.359666432546806,-0.998074184926709
1.143476836,0.293030499392962,-1.88419943581165,0.175416081372298,-0.431575290214111
1.151474101,0.383096328951616,-2.00367382902011,0.48470179568365,-0.000648426432695593
1.159471211,0.344669017270466,-1.74895284457807,0.374291497399413,-0.161036707518547
1.16747207,0.187152570172762,-1.32016517922978,0.00197286483860989,-0.677673585520168
1.175468516,0.00772911432957911,-0.871261379179966,-0.292564901413249,-0.971446897597063
1.183464219,-0.0794917850321489,-0.420333930391021,-0.323016406336053,-0.944022268454036
1.19146043,-0.0265278003938751,0.0509218013706877,-0.207853779384542,-0.860730838499013
1.19945918,0.137412827378473,0.485898847502127,-0.182293054159301,-0.817997835919482
1.207457344,0.364677516251275,0.763984498524013,-0.312048195573192,-0.87273528667324
1.215454609,0.631496100175973,0.790296915814999,-0.435956327983154,-0.859589079569171
1.22345082,0.904334532876583,0.570316712392115,-0.360890477984195,-0.935421547836482
1.231445156,1.0762217872907,0.230146403740354,-0.0768340702034983,-0.773994942813209
1.239438633,0.984173080236172,-0.0416324961255245,0.219044100263158,-0.387402593438812
1.247434531,0.548045096154606,-0.120167449559935,0.299642999887714,-0.271265920173158
1.255430469,-0.0825401433529516,-0.0224230734975116,0.118371005806031,-0.486706417818437
1.263426406,-0.554904928161485,0.160350766162986,-0.132887838782067,-0.708261033723728
1.271420156,-0.552902951697303,0.393740548275107,-0.188924192707991,-0.733303014615121
1.279415547,-0.049018895193017,0.730766537907557,0.0368347950975083,-0.548664224652196
1.287411484,0.66821060998526,1.20031810595306,0.367377963122931,-0.122775009804839
1.295405898,1.20373025364265,1.68568654380928,0.5182458655922,0.107677076248956
1.303399961,1.30499683963995,1.94700392496189,0.333536487970157,-0.114781644093194
1.311394492,0.96700970323981,1.77440642950991,-0.0877440604492983,-0.610319931077052
1.319389141,0.376622175479862,1.11886223878694,-0.469174478614259,-0.774670124535061
1.327384414,-0.210654105770595,0.103866424314379,-0.572220521749472,-0.732369524320438
1.335378906,-0.593873235990749,-1.02898294374354,-0.366381842680813,-0.841661077271877
1.343371836,-0.716582428732625,-1.96149580341284,-0.0345073093931182,-0.594958541838253
1.351366953,-0.671704633510537,-2.37942166337839,0.172571690868228,-0.343110972864755
1.359359336,-0.59529538858688,-2.154796396428,0.125757885526413,-0.418634549218748
1.367352891,-0.526943262231857,-1.48463854426782,-0.083803972754319,-0.693517476940791
1.375344492,-0.381404913077155,-0.782259545349591,-0.216403883033422,-0.846283153779493
1.383339687,-0.0714108781709851,-0.367186332990675,-0.090436035684792,-0.762785357520654
1.391334375,0.364664927853012,-0.232655279599489,0.246952816939604,-0.342640058354051
1.399328398,0.780407738693092,-0.119201105770295,0.556953683816447,0.0896974351719737
1.407324922,1.04854626830661,0.180156537514847,0.604908726172587,0.163702389752614
1.415321211,1.14182882977493,0.610734810396305,0.327535250177573,-0.209519370673494
1.423315781,1.08433481876151,0.949068787937465,-0.125133947173608,-0.752689965344074
1.431309883,0.859359126849881,1.04560848231172,-0.477987490740075,-0.800309542786945
1.439303828,0.421049600029055,0.928463354592525,-0.507629900202972,-0.775673923271672
1.44729793,-0.184041119768867,0.704651252375198,-0.201158402143262,-0.76705856143524
1.455293203,-0.744083955353655,0.443388169513508,0.223073095129597,-0.276577165104219
1.463288437,-0.989898328388697,0.177739573616861,0.466214468820983,0.0487374092815522
1.471283867,-0.812224073027806,-0.0352720448894637,0.364496606415841,-0.105227837707146
1.479280117,-0.362827122097647,-0.108281678343739,0.00904502237869711,-0.601109035834968
1.487274141,0.0814867317076082,0.0058512557412388,-0.31587972768265,-0.938101334605612
1.495266953,0.358083722673915,0.253139101456355,-0.350479115051019,-0.950016293558888
1.503261367,0.526198810981146,0.529676575558376,-0.071252805817548,-0.730607147023111
1.511255664,0.750016720634228,0.792843214142508,0.29632101692358,-0.242695645199707
1.519248594,1.08453448632228,1.05995424014614,0.461713321170211,-0.00407186206217712
1.527246641,1.38004972793923,1.27656706992324,0.281619485040857,-0.229530240762768
1.535243984,1.39307729749599,1.26903625035398,-0.137063117195375,-0.712462220975899
1.543240547,0.989778594970996,0.916654608502517,-0.50163265867137,-0.800807628871243
1.551234492,0.265883995729144,0.346855085082182,-0.533979553450139,-0.805831824650201
1.559225195,-0.481599993635868,-0.120976183281373,-0.17552721621402,-0.772817277058431
1.567217187,-0.883934515501177,-0.237955042838833,0.358564591960994,-0.111306335546343
1.575209297,-0.689546325009097,-0.0126795166893119,0.727430171414521,0.378745747159754
1.58320207,0.048327099874891,0.331372299388597,0.695948463519347,0.310601449299377
1.591195781,0.94653886620601,0.53755706371357,0.285605996392394,-0.271481523774157
1.599191484,1.52885030195169,0.455551023002146,-0.231606783765327,-0.886962429880646
1.607188125,1.55867649623383,0.0609508411493408,-0.51259925012508,-0.864700451085172
1.615185,1.17285412364192,-0.576361870507064,-0.405530350528096,-1.07220414728074
1.623183164,0.710169010072186,-1.29284068142758,-0.0694302461461944,-0.805948204201298
1.63118293,0.418123854922219,-1.82837423415482,0.178364274922991,-0.434621350351401
1.6391825,0.303222454431437,-1.92830018110697,0.149847954281569,-0.465253744354974
1.647184726,0.212997955573145,-1.54815742517769,-0.0583969338025737,-0.751851053255526
1.655185469,0.0245054978468772,-0.941744376668074,-0.181988411734165,-0.890266846036637
1.663185039,-0.241012436534279,-0.461286087027221,-0.0515246495521436,-0.699585698372257
1.671181406,-0.449931477768323,-0.239020876951632,0.256918418280897,-0.281636483731859
1.679179492,-0.467679398934486,-0.0866016756912149,0.511182721840214,0.066973034686351
1.687180781,-0.25015168709085,0.279574529052082,0.532271221740811,0.0932002910646366
1.695179219,0.128487372076547,0.925329350862565,0.299974248797507,-0.213223900140044
1.70318,0.512752226365442,1.61887793583788,-0.0893467760774322,-0.623577008448212
1.711179766,0.749538899633007,2.03472930997547,-0.475607958039051,-0.64673916124305
1.719180781,0.779069116144259,1.99690005753325,-0.664280479216549,-0.507487174818943
1.727180273,0.671346635026475,1.5398436462433,-0.514584600224849,-0.696732065729051
1.735177344,0.557107495785852,0.822487374738049,-0.0615893161845,-0.692196289148948
1.743176211,0.496771341404179,0.0575156663107406,0.462528933472176,-0.0362160586774738
1.751175742,0.425227841038661,-0.528249249869999,0.769025828664898,0.391014844101378
1.759175195,0.246051817178674,-0.793716284771181,0.707323824505919,0.305494586292926
1.767175469,-0.0232315784162477,-0.784129965495563,0.354227497853704,-0.183435862719739
1.775174492,-0.219116627739839,-0.677497723849253,-0.0526797146775011,-0.708462343612994
1.783175234,-0.15331315375432,-0.599036565462863,-0.281804599435542,-0.925996253991131
1.791177031,0.234777041484984,-0.503132809785873,-0.257072710214889,-0.983161415518469
1.799177383,0.824613286106778,-0.259394527278377,-0.0763266797184264,-0.80571276909989
1.807179844,1.37546869496905,0.14818889241689,0.0864569054541264,-0.556973707133678
1.815181133,1.64075357378945,0.539671468727013,0.100253151947405,-0.505339249948115
1.823183672,1.47745884298784,0.679487214343771,-0.0381496367325633,-0.674530890456379
1.831184961,0.912523266010837,0.489266189257601,-0.201141984215202,-0.884279269769115
1.839186562,0.137093503027436,0.0978518002002282,-0.231445487592666,-0.898105090529376
1.847185937,-0.577051739806223,-0.310815878946913,-0.0726681308803086,-0.671713435415244
1.855182383,-1.00192348075145,-0.645084978292057,0.181886277374413,-0.330436409502562
1.863179844,-1.05754147613131,-0.895746815832479,0.358795933746685,-0.101833448691719
1.871176094,-0.833344196333294,-1.06426726433519,0.328533027038259,-0.161833608241376
1.879172578,-0.492704144581027,-1.15875597521587,0.0983360364872163,-0.491795394648911
1.887171133,-0.127841310483438,-1.22219967404154,-0.177992404794665,-0.858053183910486
1.895167812,0.286080036367657,-1.29306950264063,-0.302564123331059,-1.02513362826093
1.903165117,0.782180192326081,-1.31852648496782,-0.189734629035132,-0.973430019723712
1.911163125,1.26810670542145,-1.16490055069482,0.0674322859827673,-0.613847538949597
1.91915957,1.53646164306504,-0.768968580524483,0.275801283528235,-0.311053666954733
1.927156641,1.42345990990864,-0.251561685431141,0.286315833676483,-0.292213075364422
1.935151484,0.950398719761073,0.171931439200908,0.100327150276657,-0.54357643450971
1.94314875,0.311112061320204,0.392802534419041,-0.126699074454656,-0.791642799447685
1.951144805,-0.264109721027577,0.485061987364349,-0.18987322313018,-0.771299145468928
1.959139101,-0.632888022030365,0.583574084210118,0.0106630609196467,-0.52913386639579
1.967134258,-0.761673020112106,0.739155487610624,0.376208409602587,-0.0674281891940842
1.975128945,-0.677677816267444,0.908687529241452,0.662543211770757,0.313810021201042
1.983122969,-0.443128758746597,1.0295463267641,0.637051333551015,0.271511691563491
1.991118047,-0.162155041899495,1.05959375908233,0.239285423716795,-0.268655842651326
1.999114648,0.0493666112042195,0.967215831401627,-0.333257586566792,-0.809601872226263
2.007110078,0.147768896980903,0.732074014228928,-0.718759956730973,-0.553094522808659
2.01510125,0.207125415503287,0.37880774255434,-0.663643810024214,-0.65044274211678
2.023095156,0.338719291849169,-0.00348863961835782,-0.239940542430113,-0.942222078086824
2.031089687,0.54517988639605,-0.296413068750562,0.211801622459666,-0.399189055669955
2.039085976,0.676666492039884,-0.430984339950163,0.366040812913049,-0.186015399382328
2.047084414,0.561066225893181,-0.453382413603254,0.170148363937674,-0.461715938073707
2.055082578,0.183291398043536,-0.494872318166866,-0.146704728449998,-0.864174189984947
2.063083945,-0.277446085506777,-0.641748216869634,-0.297147702854334,-0.906009897687559
2.071083359,-0.588789136913382,-0.830885452928376,-0.168810397967542,-0.770963135078874
2.079084101,-0.629883500742267,-0.885128089549321,0.122528741893413,-0.447521763962469
2.087080937,-0.438325355186417,-0.665920928486366,0.356788980359727,-0.154408278226079
2.095075547,-0.148751322044933,-0.206328632792862,0.361729943332194,-0.159044604948541
2.103073047,0.101599874010507,0.30106202928644,0.099094880320139,-0.510003831712625
2.111068398,0.245106207182074,0.634328889955884,-0.298572512435493,-0.876961654284316
2.119065898,0.297945336187318,0.652579717566518,-0.572620596457337,-0.737702963953915
2.127061211,0.311887905418385,0.327183548432036,-0.509174262498829,-0.83697700799235
2.135058711,0.306533910554306,-0.248952242119248,-0.121428492694397,-0.835244994923769
2.143054961,0.243475864867069,-0.855190691465833,0.333072654762497,-0.225143634679199
2.151052344,0.0679735277377038,-1.22581549481666,0.534947148709604,0.0671885041802636
2.159044414,-0.217394779319394,-1.2280378620433,0.347259859354588,-0.181572308124418
2.16703957,-0.514815399227691,-0.952373045528235,-0.071508814796286,-0.69115361582167
2.175034531,-0.678473920575918,-0.593729156317128,-0.379064268130883,-0.81583527325938
2.183028242,-0.622780539796833,-0.257329235574124,-0.314076635967551,-0.817925493400654
2.191022305,-0.388299929331088,0.110781952185919,0.08894597288267,-0.492099350726656
2.199015078,-0.0925826626931956,0.619291497381708,0.523412060502727,0.084717902759355
2.207010586,0.175478248166568,1.2622604051017,0.647245017321792,0.271443290098834
2.215006484,0.394829333636281,1.85589965107954,0.333303278005056,-0.117185758212532
2.223002773,0.555117114596903,2.15926218400881,-0.232591928127063,-0.636408456012875
2.230999609,0.604169400172247,2.06153893061841,-0.671189955478676,-0.48916242356522
2.238998398,0.486069203299629,1.63979776157234,-0.682029754768793,-0.524992370782627
2.246995742,0.216953627159427,1.05800910680968,-0.269253351777595,-0.802563077613286
2.254991523,-0.107590704128485,0.467763536925364,0.260305313398483,-0.276943501910524
2.262989023,-0.379640092431069,-0.00999780772315116,0.529461033972429,0.088785444224476
2.270986992,-0.528485362944772,-0.306564275819628,0.365735247309127,-0.13136301141809
2.278985898,-0.503630011729759,-0.450580253456714,-0.0915160812333714,-0.706751542821802
2.28698457,-0.262902813192418,-0.545795727583401,-0.503022880745896,-0.825567487786006
2.294983398,0.166751431972548,-0.660794287776717,-0.571336760282195,-0.813597034607399
2.302980039,0.635913332776739,-0.735941827701137,-0.255266170248523,-1.05484249308248
2.31097707,0.950584139008372,-0.627518378792509,0.208451525074176,-0.415571802902509
2.318972656,1.03381052236342,-0.27244828546397,0.492701951585163,-0.00504754307423598
2.326969492,0.972174097574321,0.201224579410686,0.417839415833657,-0.100122259557822
2.33496793,0.86787005023167,0.552985223781553,0.0680424228153779,-0.563625949920856
2.342965898,0.682520839962984,0.623016329849901,-0.288169715018998,-0.912802936388755
2.350964414,0.290764535972852,0.444501027117401,-0.404445589678685,-0.898814053220584
2.358963398,-0.306030489728951,0.181927425888544,-0.22508051085748,-0.815986011453666
2.366961875,-0.867275661562756,-0.0131833087940985,0.096912505523424,-0.434171339120612
2.374960117,-1.06670151142013,-0.0907328152753555,0.321104647261343,-0.139583264844101
2.382960039,-0.785044976601604,-0.0855435911154849,0.283214151855795,-0.214828327042102
2.390960937,-0.237368367330918,-0.0461664651146066,0.00280777311570966,-0.619739658800225
2.398961406,0.213477219383205,-0.00448213594111331,-0.318045800340368,-0.961985337599062
2.406961992,0.368874428541898,-0.00428830933872336,-0.434266572951399,-0.945683098015703
2.414962891,0.31772262540203,-0.0924812208546242,-0.263969307685814,-0.966199424020414
2.422963437,0.280830575295482,-0.238406481969015,0.033168665250872,-0.632989103244363
2.430963125,0.379407260620593,-0.299905052269333,0.19557915421227,-0.416588412298397
2.438963555,0.554750384842143,-0.133046819622461,0.0869891128699291,-0.568662120880787
2.446964453,0.656201218418338,0.249785298014285,-0.185763826656545,-0.891977522787497
2.454961992,0.567216250525235,0.66736570768128,-0.361763956267499,-0.904844858268824
2.462959844,0.270530399495298,0.9300189333243,-0.243494376616374,-0.81558968954344
2.470958125,-0.148051011972908,0.988054310794449,0.142162678561011,-0.395605347543632
2.478954492,-0.52009666281629,0.927582615940048,0.562197233893562,0.170282994369002
2.486952383,-0.653057792493969,0.867202332205353,0.746958529151138,0.425913868674917
2.49495293,-0.451520480990819,0.882090999633907,0.565661299255011,0.16940399223516
2.502953281,-0.021235004902015,0.989259773766695,0.0955999049924007,-0.460864309927226
2.510953008,0.378527451209677,1.12685382268507,-0.413270433118372,-0.802821155751988
2.51895457,0.533947612331945,1.12167701582956,-0.670589206090091,-0.59501197230824
2.52695543,0.436803459391929,0.758187224318637,-0.54510689114606,-0.763708104059701
2.534954375,0.227895345219922,-0.0185714902901481,-0.173354742782836,-0.869519251929898
2.542954648,-0.00136420327948656,-0.949747805265486,0.157854058417617,-0.456721543656494
2.55095207,-0.291860884650202,-1.57865856358995,0.266243115583784,-0.282301203998273
2.558952539,-0.676575297746558,-1.59317470323961,0.215783631914076,-0.31659258670113
2.566952773,-1.01289876841283,-1.07283086929166,0.192662247337643,-0.317090896896478
2.574951289,-1.04871823285534,-0.402233879375074,0.254789557360305,-0.231558195925628
2.582947891,-0.691531872502821,0.0358949877132495,0.243414931408555,-0.271179903006975
2.590945898,-0.149220741366742,0.093186639798886,-0.0297911915383123,-0.660737566337843
2.598944141,0.264813863137604,-0.139211182095528,-0.506516371796575,-0.876751972675211
2.606942969,0.443621076451998,-0.460364066329849,-0.836295810241636,-0.468742957497893
2.614940351,0.54088848681431,-0.669388744269671,-0.667870151683503,-0.712240099270993
2.622937461,0.721720355150957,-0.635185492987504,-0.00993695905399473,-0.723784703531846
2.63093668,0.939450249856104,-0.364321408080653,0.699730263642444,0.288868518114071
2.638934687,0.997787574488717,-0.0162523534920302,0.915932242934062,0.601965711667186
2.646931914,0.77439220983982,0.207684442130437,0.446127502762676,-0.0592618693474501
2.654931836,0.320749860090478,0.248336271184702,-0.360268550726442,-0.944424854764313
2.662933203,-0.228617196568677,0.264567464198097,-0.880535737143822,-0.348494790079613
2.670936406,-0.760345050475391,0.489534389950106,-0.717723330434011,-0.483431177517933
2.678939023,-1.16494513473045,0.992819014413067,-0.00326657945409088,-0.441901739095369
2.686941289,-1.29116710242756,1.58678460658923,0.734375377027487,0.47556239699151
2.694945273,-1.02746916687102,1.976848686041,0.981275267867732,0.805556770660452
2.702949258,-0.459660111218964,2.0174289014651,0.588358204401333,0.256839490464808
2.710947969,0.112659003651148,1.8139394795566,-0.151037268747444,-0.621204775938819
2.718945391,0.385259816124301,1.55663314269856,-0.724037623891936,-0.484603888347165
2.72694457,0.292268849179894,1.27188793625966,-0.779799379786246,-0.442995155981732
2.734941641,0.0304946877289931,0.799702954375063,-0.377489420992022,-0.826637099503078
2.742939609,-0.144479935716123,0.064149074094088,0.111018362874931,-0.487985163868647
2.750938594,-0.127426728095642,-0.696390250775434,0.346650987182285,-0.187962387094498
2.758935898,0.00162621426714786,-1.09560042358205,0.283739185554785,-0.282851064468398
2.766933594,0.0951820220796004,-1.01192388021137,0.117200785918287,-0.518635733088859
2.774929726,0.0729579041698217,-0.732943442934975,0.0384234687203172,-0.622837573842166
2.782927148,-0.0248151772884793,-0.63869604876258,0.0742333238557376,-0.566048986902147
2.790922773,-0.075852298343653,-0.803863432140455,0.11554751266495,-0.508338388227822
2.798919922,0.0302988577592889,-0.96812731290267,0.0534218981566209,-0.600417359728118
2.806917812,0.300392340240635,-0.843987076921055,-0.115694619613411,-0.8468585486815
2.814916758,0.610860475040901,-0.377417310498139,-0.284293110357561,-1.05132262818756
2.822918242,0.771706780201812,0.243008289671321,-0.308728210310378,-0.985836575956137
2.830918086,0.647589290876071,0.715096698847063,-0.132560397137888,-0.783432675561887
2.838916601,0.256328142029911,0.763078976568954,0.133304635507025,-0.446601827432869
2.846918711,-0.23643796247339,0.295579090383134,0.289958513668412,-0.236614371362264
2.854919101,-0.629607951362817,-0.462965126493158,0.2224600791628,-0.315780546693097
2.862921211,-0.813787810637153,-1.05765178294912,-0.0198341914995916,-0.590547652720307
2.870922109,-0.805765665741773,-1.153054205636,-0.285363914179742,-0.788126765807801
2.878924375,-0.668993357813324,-0.832818646457339,-0.426791746122085,-0.805348940997396
2.886922812,-0.424459692938069,-0.504662078495438,-0.358635949116661,-0.872658189153387
2.894922148,-0.0702269146383241,-0.48036739190121,-0.0808304750541847,-0.755597619849512
2.90292125,0.325642547786984,-0.654854873647621,0.293208661465495,-0.28326144298606
2.910920937,0.613903644775737,-0.622414480374267,0.557804617822753,0.0861069346406003
2.918924883,0.687227206081193,-0.120987225845761,0.526876480268238,0.0478046489193606
2.926926172,0.58808378307409,0.663879377969369,0.170317348167779,-0.416663491583301
2.934928047,0.446633155671229,1.26100471336391,-0.327850714252901,-0.801182596795619
2.942928281,0.321678764237996,1.36565801930936,-0.662220039521157,-0.569066911482596
2.950930391,0.150484022866688,1.09944765843787,-0.613241561075326,-0.637855310943754
2.958930156,-0.135341528911615,0.818639905892477,-0.209728251067978,-0.765619254440086
2.966930586,-0.475172705373184,0.712727470156744,0.28490075742415,-0.208368248696362
2.9749325,-0.687970781655225,0.64078161341259,0.552512276544785,0.156440233213397
2.982931914,-0.622971750747016,0.359783922109785,0.432095412707718,-0.0186903543848297
2.990932734,-0.294224980293721,-0.139880048751751,0.0160154336643587,-0.601664933753508
2.998932187,0.135921741644425,-0.591310308119305,-0.414428798388108,-0.971493930502787
3.006930351,0.491816726104734,-0.741546723176437,-0.566001578806178,-0.85112197644518
3.014932187,0.693464719819202,-0.604781959781186,-0.320358501426967,-1.11026530034613
3.022932656,0.749580955937654,-0.391153032339593,0.189534687488726,-0.43704210949208
3.030931367,0.683582066990025,-0.265010594846188,0.654321669729525,0.226750426793886
3.038928125,0.492484058155021,-0.258538719733346,0.770494967802371,0.39474756569668
3.046921523,0.165528964105283,-0.374131754050875,0.445070370619263,-0.0601035069881836
3.054915195,-0.276391474812743,-0.624696496614304,-0.113458269400824,-0.768491981851851
3.062911367,-0.753523748350073,-0.920224144800606,-0.519857570377331,-0.728486162207383
3.070909219,-1.12674009169021,-1.02537386377524,-0.495428201895421,-0.672063317889608
3.078907305,-1.2427812203748,-0.746072174337322,-0.0952453969676619,-0.5887192273621
3.086906914,-1.02976257086819,-0.153499513959684,0.335161499373532,-0.126617059649164
3.094907344,-0.574672922496207,0.449022314800046,0.448704655429309,0.00324640309531278
3.102908086,-0.0816205332027711,0.803357927544787,0.168355261334398,-0.379952829346306
3.110907695,0.275091891437294,0.890251407709601,-0.280116691772359,-0.837043758206272
3.118909922,0.459784818388029,0.830085636195006,-0.578324739868123,-0.723263930536505
3.126911641,0.545619265820268,0.670761584409486,-0.570399983462247,-0.753434345341208
3.134912578,0.598561484882989,0.362254704890314,-0.338361868883556,-0.958932821974217
3.142913398,0.602954341966303,-0.069709253075373,-0.0799189053633686,-0.792405460221685
3.150908633,0.489689425334411,-0.435757023596606,0.0553231398503931,-0.619766512681236
3.158907344,0.223332339042674,-0.555577594751827,0.046468967139115,-0.620252573544991
3.16690668,-0.133893306306427,-0.473381988215889,-0.0227280088560826,-0.67765192528356
3.174906601,-0.442288496728007,-0.403892753447241,-0.0412233454038863,-0.660023729716435
3.182907148,-0.577751137183493,-0.453812227397769,0.0514610357456674,-0.535960028564594
3.190907344,-0.505377608117112,-0.46158713140152,0.215739576053174,-0.335741505241158
3.198906641,-0.27022613866243,-0.157618507435574,0.328673328192365,-0.196047046766831
3.206907187,0.0512190726309282,0.534717423902296,0.268850520745539,-0.271226838669323
3.214908164,0.372097002529077,1.38898975681397,0.0176040325213028,-0.537596718609267
3.222909375,0.596129662226203,2.04590480016316,-0.289992541536441,-0.673078193660814
3.230912383,0.650533914464076,2.26018294335669,-0.439676566985908,-0.623518231388263
3.238915156,0.540849165224399,2.00513572608953,-0.314408026412931,-0.681118948751558
3.246914883,0.344209178499906,1.4095883625806,-0.00115108664638507,-0.554409742462261
3.254915469,0.123436139454838,0.647867383422395,0.278535343142599,-0.256259166416783
3.262916133,-0.127414775011832,-0.133076099064569,0.33007665753393,-0.202097459619176
3.270918555,-0.414572653904247,-0.841453743736638,0.0985389115095489,-0.50046779686635
3.278921992,-0.626890131093137,-1.4012331635794,-0.315142580728508,-0.827057114434599
3.286926016,-0.544275198932312,-1.66942920992031,-0.696270195787,-0.567482873249809
3.294928281,-0.0300765605431046,-1.45630998333513,-0.816470941079571,-0.469918957152625
3.302929922,0.763597008750333,-0.726849461741971,-0.597792547658587,-0.819842971469196
3.310929219,1.40972210799844,0.212434400389294,-0.212122393783313,-0.912666537293967
3.318933242,1.47894732444729,0.829827858961929,0.0359197865980396,-0.572642559841147
3.326935898,0.869110450292061,0.760878426290067,-0.016073913388374,-0.653000084572084
3.334938437,-0.0781061106012054,0.105584055713527,-0.224020095309618,-0.859732422964362
3.342939883,-0.794274146172233,-0.652243567447202,-0.289042847060302,-0.790274939727326
3.350941094,-0.901038109080201,-1.02425534496273,-0.084296672405249,-0.641301833220771
3.358942695,-0.498969563071908,-0.882283891180911,0.203669466270167,-0.356070020133814
3.366939414,-0.053382684974964,-0.513364287633671,0.272969078815736,-0.292135440240051
3.374937539,0.0432579988842157,-0.321720070969917,0.032173503853922,-0.620006765148227
3.382935078,-0.187869282600658,-0.441803064234297,-0.291343002041458,-0.915240720445812
3.39093375,-0.394655844876125,-0.602210614566914,-0.374113048209638,-0.879755142032694
3.398934726,-0.279348138499376,-0.368821119992366,-0.109382185190555,-0.756045424748819
3.406935234,0.11940870779503,0.433671805167659,0.293568597829784,-0.245733631542604
3.414936523,0.488954869626687,1.50788371733369,0.496937944416517,0.0720802362447942
3.422936328,0.529121916798954,2.28814587192183,0.334407563421965,-0.0838457430933963
3.430936562,0.182072330220342,2.37345136057305,-0.0541505396455369,-0.47663346083399
3.438937266,-0.359737698382973,1.79608038251203,-0.369421772618812,-0.637608231754916
3.446936133,-0.820836052309228,0.938679718718553,-0.413085738151379,-0.668576144746291
3.454933789,-1.01211908968343,0.249302155551488,-0.220693798086111,-0.677990060972344
3.462933164,-0.884978561877906,-0.0180356793456624,0.016349583259835,-0.522243494260856
3.470933516,-0.498930264821613,0.0740391170176265,0.130855343216796,-0.430691423694791
3.478933359,0.0217090577754454,0.21371144987965,0.0988425059298593,-0.509442519975057
3.486932383,0.525297007022738,0.0838199413641877,0.0315303132020872,-0.63311638063787
3.494931797,0.880754985185062,-0.376856398354211,0.063811023730295,-0.615972099452366
3.502930898,1.02310039569344,-0.904452940903326,0.223902890790541,-0.395176920319163
3.510930781,0.968554397862809,-1.10664340606783,0.400610863887282,-0.142056276149428
3.518926836,0.801455555943969,-0.778540454824399,0.429608228843258,-0.0999848078279555
3.526924766,0.638684275413126,-0.0741704217237094,0.224308362699261,-0.377715253852653
3.534925469,0.557988930828338,0.613966907972945,-0.129663696410521,-0.78807893912117
3.542924375,0.523822446567596,0.952317667464991,-0.401067238647544,-0.845130779843295
3.550922969,0.397997853533985,0.867833299770057,-0.376925875749765,-0.856501058357893
3.558924336,0.0661057070727972,0.5095888376859,-0.0437789696710139,-0.6690538325865
3.566925312,-0.415021713753425,0.0912707453610104,0.373353703697875,-0.119759081313921
3.574923906,-0.806327793342532,-0.214345893995849,0.569270277491553,0.165301154638716
3.582921914,-0.861717671427389,-0.313395317968497,0.387106259931619,-0.076966074081224
3.590920078,-0.5323086467382,-0.213264749648771,-0.0716866233039889,-0.673625524294306
3.598916133,0.00325977890059409,-0.0232903604935614,-0.516770336072364,-0.825480232664075
3.606912695,0.497494481896819,0.10772124068337,-0.65956408659988,-0.690923529848738
3.614909414,0.814938892122119,0.106105904218241,-0.40311680896754,-0.991643908584323
3.622907187,0.981612076501871,0.0388894383702937,0.0998302096090173,-0.550579777871471
3.630909258,1.09089714179432,0.0474338667289944,0.540321429225151,0.0692071541632913
3.638906172,1.16899276026445,0.208787849434733,0.637027866542119,0.210524882621463
3.646901641,1.12729904925674,0.469132362650693,0.332420710652623,-0.209171224010526
3.654898906,0.853810570766407,0.710739790736929,-0.138204994381396,-0.795213411947245
3.662892031,0.351734483391574,0.856433580134702,-0.404971337994791,-0.845260388318619
3.670886211,-0.222163094652624,0.891584926279708,-0.253945471117216,-0.766863660265533
3.678882226,-0.64875564287195,0.827008590589164,0.191307246499065,-0.304844771973275
3.686878789,-0.772377573839022,0.695900564837879,0.56703332504317,0.183223934544791
3.694876758,-0.572422704280094,0.57815248017014,0.556275071054672,0.152396542223395
3.70287625,-0.161250383182591,0.567838396602808,0.126691719839315,-0.441197290102298
3.710878398,0.270528147449635,0.670338357250154,-0.434170986641244,-0.850142960669455
3.71887875,0.540119032393989,0.741029798258076,-0.714701130363071,-0.577159475152389
3.726878203,0.55602312940692,0.575394731955685,-0.489693123661021,-0.845176136050701
3.734875117,0.343175341423056,0.0985946114247616,0.0942013810069594,-0.540306388796191
3.742875351,-0.000185472514550176,-0.530665345510123,0.610282432673581,0.176902100185869
3.75087457,-0.356123370196927,-1.03010296574775,0.665360597202064,0.267379910075421
3.758873476,-0.611533491833436,-1.22965531515091,0.210252399534264,-0.335737612193383
3.76687082,-0.679001685252923,-1.19180637826638,-0.412585294882508,-0.807358851354384
3.774868828,-0.541396876334323,-1.09441302320577,-0.734959841913968,-0.533134290056859
3.782867344,-0.276158170909749,-1.01118567944917,-0.524463082550823,-0.808766805248296
3.790863359,-0.000540235213329957,-0.821817732128603,0.0428501748370501,-0.611637719126796
3.798860078,0.213274770511292,-0.350551418106262,0.527776303301369,0.0552806833796269
3.806857226,0.351747214333037,0.407168541672291,0.558882988712727,0.112175720874145
3.814856719,0.405751698080971,1.21858005857456,0.0953816355353719,-0.465307100469985
3.822855234,0.339126355972428,1.77331456412725,-0.5422328774956,-0.628298839671188
3.83085582,0.126736314595096,1.88556345705543,-0.898724925184032,-0.239284408041742
3.838856641,-0.181569952244942,1.56151521534236,-0.715056331809635,-0.459193133866512
3.846857851,-0.454660207353551,0.948603526922162,-0.109224470482109,-0.636418919726614
3.854855859,-0.566606033056963,0.269631840864498,0.50936542675013,0.0789693817439323
3.862853476,-0.507819065079262,-0.248192307930998,0.720472397723596,0.356167246180242
3.870850859,-0.396503959357835,-0.483238869153788,0.391754729607336,-0.107614518858881
3.878849062,-0.35330606375446,-0.494937746240139,-0.219013159688598,-0.846294319922094
3.886846875,-0.369771115618279,-0.456483621011919,-0.651739002128348,-0.64878037979648
3.894844297,-0.323055302855254,-0.477872181893099,-0.594149978900342,-0.721290014912845
3.902839531,-0.115317237921727,-0.482355671939105,-0.117775435770312,-0.792289215291016
3.91083375,0.22259526799007,-0.271159832867736,0.409978899686895,-0.109801362860869
3.91882832,0.567830705240845,0.260949675736017,0.646351321049924,0.227098212397776
3.926824922,0.816840745316883,0.967659302687766,0.529394939420012,0.0849465832089607
3.934820859,0.923441473231186,1.53043256887265,0.273365983689916,-0.226593136927983
3.942815508,0.834744591380103,1.71074261323189,0.132312304446343,-0.385654379643844
3.950810781,0.458990369089509,1.50539498028426,0.154899467825502,-0.369952559979168
3.958805547,-0.223089611343777,1.05082532697518,0.156021487599628,-0.36879796380368
3.966801758,-0.996187771352993,0.451245195388234,-0.0929061728823024,-0.584087257535891
3.974798594,-1.43961162064795,-0.217274948667938,-0.626946365856051,-0.501631444865158
3.982793555,-1.2312866420016,-0.773338215201582,-1.18902164655795,0.119565271331763
3.990790195,-0.454461157472377,-0.944986686957922,-1.36338474791998,0.305916863858757
3.998788125,0.442529495339153,-0.621134890267683,-0.865338862527515,-0.430387834939101
4.006782187,1.0100946377452,-0.0541947830094605,0.200712666171359,-0.413504704361981
4.014778047,1.09564826405465,0.288534329569736,1.30916131672755,1.16725010351015
4.022774961,0.817558266606997,0.111815445476048,1.79572346758687,1.85938123323878
4.030771953,0.379569202291754,-0.474525205106455,1.29790530510821,1.14662895125329
4.038765312,-0.0271329780500667,-1.06930906617747,0.0406322962974373,-0.612208368210359
4.046760351,-0.265119058600976,-1.28473587047694,-1.25742489816214,0.149976235804918
4.05475457,-0.32804948789348,-0.979395095672417,-1.83703138999484,0.968780371075984
4.062745781,-0.350358738355196,-0.293709009603426,-1.39279528934834,0.346311112349855
4.0707375,-0.461622391122408,0.468961114021454,-0.232388822491581,-0.766996922090149
4.078730703,-0.634334775641902,1.01118813811624,0.965928522536682,0.7307886462466
4.086724492,-0.716267793834667,1.18321117100733,1.56602293185404,1.57582633100359
4.0947175,-0.603932026183897,1.05241026073057,1.29545092419848,1.18961275117835
4.102711094,-0.350214056963803,0.846715760364835,0.35475889767109,-0.119462480230824
4.110702344,-0.107861230138268,0.754777505211474,-0.691740767781023,-0.563801861295176
4.118697187,0.0116261279663834,0.734903689843829,-1.22829949335226,0.127653500825934
4.126689297,0.0272562716196747,0.565221786727673,-0.971981795568484,-0.22921994554462
4.134682891,0.0414284690536754,0.124038317588764,-0.153726366714635,-0.815725715895465
4.142679297,0.105664902275427,-0.410755914986027,0.650960552066125,0.232020789925703
4.150674219,0.15613939552205,-0.693484246610068,0.922532292732774,0.614167285046066
4.158668398,0.0975322029621417,-0.550084677615059,0.554916961817203,0.0951322222853167
4.166664687,-0.0731826805146644,-0.156913621187652,-0.0947946594677825,-0.757919044806362
4.174665391,-0.255255676921171,0.133010182441826,-0.502045826870456,-0.789900526444458
4.182665781,-0.340045573266,0.126069363393593,-0.376729621362215,-0.845205279838648
4.190665937,-0.282595005759068,-0.0595854604918672,0.139242858157619,-0.444766160811158
4.198663047,-0.0887435105987993,-0.154102645405422,0.620049491082921,0.198756026585975
4.206662344,0.216697256430122,0.00342436894737043,0.698783225104199,0.302667471992158
4.214661172,0.570620424220499,0.375756818528061,0.326269219643865,-0.218150848794771
4.222659883,0.829114214920698,0.807704612916912,-0.209372657432187,-0.844807358574831
4.230659922,0.809242444566869,1.09690270106717,-0.505656506848932,-0.770790393481651
4.238659336,0.442529869168917,1.02529244791376,-0.360209818073202,-0.838068150978297
4.246659219,-0.117421697486853,0.471335023512267,0.0731574138205723,-0.517083517831048
4.254659687,-0.589857063951292,-0.417034053521165,0.407868573942034,-0.0717503019513954
4.262660156,-0.78314840613541,-1.22528462407019,0.334989890778898,-0.156776581540863
4.270659726,-0.705926550346643,-1.56991094445327,-0.112962451160244,-0.690002093221749
4.278659531,-0.488852010037791,-1.4255403086741,-0.579448201991542,-0.711926175850755
4.286661133,-0.247152402724267,-1.11574190035172,-0.678559829661138,-0.636124127869849
4.294660508,-0.0284040213878234,-0.967997440114004,-0.305885474479415,-0.968255787949187
4.302656719,0.148167844020216,-1.00120096279895,0.290381451722881,-0.281231824041712
4.310650703,0.246305399100097,-0.956714966727607,0.710750883449115,0.310158878271759
4.318644883,0.231144661748928,-0.60068111504379,0.681271943963048,0.269767687391154
4.326639961,0.125228773167125,0.0401369700682737,0.211046790502481,-0.373539486302382
4.334632969,0.00231235241404028,0.722097267381431,-0.416843242240304,-0.820424320903688
4.342625351,-0.0956173841467593,1.20040717519297,-0.813519065741107,-0.386295402009299
4.350619766,-0.198405745730554,1.37410365685665,-0.730310378223258,-0.459607800221613
4.358615195,-0.333601287555596,1.28000230135589,-0.214500263437868,-0.684877929365955
4.366612344,-0.440474959500505,1.03569545084599,0.415782194093341,-0.0243724580502994
4.374608594,-0.410239415165649,0.782866898669872,0.758116988632404,0.427039088359103
4.382604219,-0.216103780587833,0.598510404955161,0.583550454817987,0.172026759056629
4.390598516,0.0433615678509726,0.428184864975952,0.00240638598357143,-0.619249790685008
4.398596133,0.251096316230719,0.151523639011868,-0.594589541243912,-0.753481468208715
4.406592656,0.389097067287815,-0.243445211118984,-0.808757404691639,-0.499684751730249
4.414589101,0.519905934155117,-0.562325635730029,-0.524722971939554,-0.903421961462264
4.422586211,0.665606282850614,-0.543412481214211,0.0265440879014596,-0.668906424549003
4.430582148,0.748918160489586,-0.140077348294684,0.462651232210885,-0.0444078030627544
4.438576523,0.674082791385319,0.371973177455872,0.522659484469042,0.0544408270106981
4.446571094,0.432930035751992,0.634130859152729,0.231684167415365,-0.33189085198106
4.454566484,0.094835153869039,0.54926525232379,-0.152778950434179,-0.780789453737273
4.46256293,-0.288922917458846,0.333319837121622,-0.356895506432469,-0.837914384304876
4.470559023,-0.710605383072373,0.228385179220177,-0.274309861414159,-0.758976245594961
4.478552851,-1.10714451737056,0.246309942105041,0.00305063815621477,-0.491594739159041
4.486547617,-1.29156496208827,0.230929295293249,0.28453009080742,-0.152459892049428
4.494542851,-1.07508879221295,0.103174088639936,0.409571546225941,-0.0201579935157599
4.502535781,-0.485842206120395,-0.0391939275753072,0.321192919744364,-0.188411132103584
4.510528906,0.182971505394723,-0.0735635940377472,0.0815568476768893,-0.555810909310248
4.518523281,0.595553504151773,-0.0346433274110354,-0.167189994217984,-0.897444254153012
4.526520976,0.643528194335835,-0.0762032400179704,-0.294830775905901,-1.0217723840682
4.534520039,0.47032324658513,-0.26367913500086,-0.261685226091993,-1.00372206099574
4.542514805,0.255316693087597,-0.464269855449168,-0.125767848611905,-0.845907762359714
4.550512734,0.0395346012953995,-0.465423962990653,0.0273901785865284,-0.630020002742702
4.558511523,-0.223960632684273,-0.182119890386769,0.173303820728886,-0.4087630826522
4.566510781,-0.507049772812453,0.269134092545606,0.335375928044734,-0.158604791274414
4.574509883,-0.658299797566164,0.679209848287303,0.475890175906747,0.0534216954270956
4.582505508,-0.53596548662011,0.8920103850399,0.467820736658102,0.0435452542125752
4.590504922,-0.168585655361394,0.849712462907524,0.228723848462342,-0.294568296091783
4.598503398,0.237721543459957,0.547098664132461,-0.136096572418656,-0.779309230788693
4.606501367,0.458456871925839,0.0026689913343144,-0.382405826076653,-0.988763519551003
4.614497812,0.423884124420109,-0.685522903979213,-0.339655352303055,-1.06753458685155
4.622493437,0.249017252454847,-1.277550718561,-0.0575215307043175,-0.762415146219948
4.630490625,0.111263732261722,-1.47176188329232,0.237203236040384,-0.348836880623334
4.63848668,0.099079100038499,-1.13042046447609,0.316025740565807,-0.242534431923829
4.646482305,0.15219481010723,-0.438500091090013,0.131484622494094,-0.497388448414012
4.654478906,0.124652458916231,0.204939059930807,-0.14016389235546,-0.805015628717625
4.66247375,-0.0868976932563359,0.480214050743378,-0.240959803462603,-0.829935617553603
4.670469687,-0.442603088855574,0.340606286471946,-0.0413893420097146,-0.6241708939956
4.678464609,-0.759915201985064,-0.0327769093183592,0.338048150245848,-0.144279646399173
4.686464336,-0.835100464961363,-0.392615721641611,0.596438766189495,0.20182270378179
4.694464336,-0.606438611776751,-0.542614343341511,0.477556043968522,0.0227419912437084
4.702461562,-0.215554335825259,-0.403079700589042,-0.0213312209505223,-0.664885588371561
4.710457851,0.0937302682387392,-0.0798097308134421,-0.61635681565085,-0.727886058088394
4.718453594,0.160057200113705,0.142840663818885,-0.921586032765986,-0.321417749335332
4.726448906,0.0276821199426041,0.0028536092547849,-0.723055923677888,-0.583956233878489
4.734444922,-0.106130635433257,-0.47706961709876,-0.130648813093406,-0.80747324493612
4.742440312,-0.0881584937938501,-0.973874279587596,0.48257878284901,-0.00110860242803513
4.75043625,0.0402045794298462,-1.15900560588436,0.717247699989689,0.325589744593461
4.758433594,0.0980954221602388,-0.99315880809286,0.436687054230189,-0.0734944499845332
4.766434453,-0.0359261578425938,-0.706425671577307,-0.120496894694733,-0.811852888985295
4.774433828,-0.30154449462931,-0.515165691906008,-0.526114366274362,-0.796485933412263
4.782432266,-0.531342217632959,-0.399616871447948,-0.492626071482727,-0.781517267599006
4.790432617,-0.615792909436987,-0.16488590855156,-0.0802308316822978,-0.667732344519646
4.798434023,-0.578909992687334,0.305783975659733,0.367426517404782,-0.109655912751566
4.806436562,-0.510596548172456,0.904035123017047,0.487781434635525,0.0690719574986771
4.814436445,-0.462513376528335,1.42031360122043,0.168665631099522,-0.307390322223212
4.822433164,-0.440362634674735,1.75043232966032,-0.355240626426287,-0.635388494750381
4.830430937,-0.469012315039091,1.90599362505229,-0.66926968714044,-0.441805259948568
4.838427695,-0.588029889723541,1.85871449961602,-0.497465201438963,-0.558700145279525
4.846421953,-0.75903312444521,1.49184099183364,0.0849306679252091,-0.365964929631533
4.854415078,-0.835818479273567,0.766806203531775,0.689355328610007,0.354362084815188
4.862408398,-0.68547756129921,-0.112803910210125,0.874849107009079,0.581707749844883
4.870403008,-0.33754109420921,-0.790242254934254,0.476431140707908,0.00315735726569138
4.878398164,0.022417342955494,-1.03785261491529,-0.251336016777023,-0.950977005412241
4.886394219,0.216142161170929,-0.926144066155587,-0.810911675435612,-0.498525021632158
4.894392812,0.215808631738326,-0.693077410519709,-0.831128277739166,-0.469184255586607
4.902390469,0.134699153524432,-0.472753051062135,-0.344611481325498,-0.992908344086674
4.910389531,0.107547396813497,-0.205131918892987,0.250853990946598,-0.325402627094286
4.918385078,0.19246284706851,0.193839973663896,0.505893476277809,0.0363298304877509
4.926380273,0.355273101188829,0.653108197920347,0.255680493442338,-0.296032935366851
4.934379805,0.494417573373082,0.985131121193971,-0.260266177711505,-0.833051887477192
4.942376484,0.476969832344417,1.06811558256715,-0.58939243166815,-0.685825127180218
4.950375039,0.205813284602621,0.935393720130647,-0.425563825437999,-0.810810856833407
4.958374141,-0.291648806229735,0.688737989071687,0.15476064435848,-0.38877281223947
4.966372148,-0.820656850198842,0.389134375830378,0.744736857648688,0.418219959278484
4.974371211,-1.09917149720951,0.0643324000939116,0.90009918351285,0.641152272059968
4.982370351,-0.951289341976573,-0.236159904714268,0.470199073006,0.0419667518757154
4.990367226,-0.459952186271276,-0.462035832555744,-0.282379551769119,-0.85558738713936
4.998363359,0.0852993976451578,-0.624595973693719,-0.86549521818516,-0.413634696228597
5.006362344,0.41392658386077,-0.771092987151116,-0.908010534467633,-0.370501387338849
5.014358516,0.457913565531925,-0.870597052734687,-0.41671176253541,-1.03527959465229
5.022353164,0.337075110541414,-0.779984847644387,0.254578433095842,-0.339098264000167
5.030345547,0.213786006030149,-0.385508278017723,0.670209453066767,0.256464092409895
5.038340391,0.174475398205132,0.228806938739401,0.604136782052258,0.17542227081926
5.046333672,0.191784635999018,0.802384451827144,0.18130979579585,-0.379036267362401
5.054325859,0.147662546744241,1.10909612243967,-0.231541483537448,-0.77205525582702
5.062320898,-0.0849096550009828,1.12765268009647,-0.314194829445252,-0.768671821273491
5.070317734,-0.520223485465011,0.998535647188438,-0.0256262802461803,-0.547540947594963
5.078315469,-0.985539723697387,0.864134320903855,0.387151187999387,-0.0294293014357858
5.086310898,-1.19477513745017,0.791705432172559,0.585881620817231,0.241571693325302
5.094306875,-0.954472291550904,0.80686451331539,0.382626033955305,-0.040422127055709
5.102302656,-0.341087112868587,0.907773092347505,-0.139246926355356,-0.679541107385314
5.110296836,0.318322121756733,1.00570603965169,-0.670096409603097,-0.597083964693263
5.118291836,0.680853611568558,0.915483100002941,-0.859000049683282,-0.382786982182171
5.12628707,0.653047824449931,0.503165332803622,-0.555148889874034,-0.792620757281716
5.134281719,0.430299417759771,-0.129915417814443,0.0621142823180601,-0.597725778430352
5.142273125,0.265456077565435,-0.658656821444009,0.581975314314302,0.127466630241709
5.150266562,0.213800964065458,-0.793065417822206,0.64995571139335,0.224786553467618
5.158262266,0.116035152298051,-0.558639805266781,0.24496347189531,-0.340732407765987
5.166257539,-0.184533862740237,-0.293044821392503,-0.301265511003427,-0.909995027151281
5.174254805,-0.631889563861231,-0.314252692552643,-0.567298431987894,-0.696546754517367
5.182251562,-0.972927245372945,-0.588761933524229,-0.360122797464437,-0.753265404755994
5.19024707,-0.979413859277586,-0.765854531122102,0.144810016830286,-0.379158038629997
5.198243281,-0.650048595615212,-0.540074156373121,0.541695544593052,0.113408382452492
5.206239492,-0.197743304355191,0.0705462165775086,0.516640176633533,0.0636900285971921
5.214235234,0.131273724436588,0.791909805154151,0.0940126073374599,-0.487423758565397
5.222232851,0.20296115268759,1.32497143184025,-0.398460996531784,-0.762619387681803
5.23022832,0.0270565100970413,1.47763429824919,-0.602100102882156,-0.595989001615366
5.238224258,-0.256296798640237,1.20051088347335,-0.379987140032395,-0.733079221425714
5.246220508,-0.431552228029884,0.609294780177238,0.132396638917879,-0.409061281681492
5.254215039,-0.346404977740093,-0.0507338287189562,0.622645597037409,0.215340585571237
5.262213984,-0.0453507189025199,-0.536518663393436,0.771394649887512,0.406047706215978
5.270210859,0.253895033757519,-0.746838024626577,0.469191034023547,-0.0326476916604957
5.278207148,0.34142124603741,-0.753720210121452,-0.0811914941293475,-0.804240418223009
5.28620207,0.184242824777355,-0.701319974592763,-0.511005136834179,-0.889429382270637
5.294195859,-0.0637093420113446,-0.647474573101403,-0.558204116513301,-0.801315947427576
5.30219125,-0.203490255098933,-0.4866107375625,-0.235362522414909,-0.88586964492618
5.310188945,-0.157614077731735,-0.0590231050171414,0.208128127172629,-0.363584817892807
5.318185625,-0.0160520712270782,0.643365814518324,0.464724196222555,0.00193663755964685
5.326178594,0.0678082211594943,1.41109764172611,0.378314570097701,-0.0787407454385189
5.33417418,0.00116967412321221,1.97007921732622,0.0626227221430708,-0.407147535557193
5.342167226,-0.221290436985159,2.16725200675416,-0.195617171370678,-0.566250197944583
5.350159453,-0.551859515681945,2.00077699955409,-0.180549758939075,-0.546557789570362
5.35815332,-0.904737193403154,1.53976259687596,0.0921599390908523,-0.338499979924102
5.366149687,-1.15920089893928,0.889753575627403,0.38842522036609,-0.0112260614165424
5.374144101,-1.20543459045291,0.206508841622233,0.401163612100761,-0.0162101719408404
5.382140117,-1.01860076370134,-0.353893457486822,-0.0202518518663096,-0.551659962919057
5.390137226,-0.67793935836995,-0.728182593864764,-0.694802925141736,-0.563534760631678
5.398134805,-0.302518778957506,-0.946673831383652,-1.17495897050719,0.0354053008766399
5.406131094,0.0247719981061437,-1.02326320190043,-1.07017646659401,-0.126935038784694
5.414127695,0.271644867392491,-0.883429366986033,-0.381612656069009,-1.02781399509615
5.422125351,0.422519000013312,-0.450557050022763,0.463718980050866,-0.0425109269681006
5.430124297,0.467774246743451,0.198642256780061,0.919755783971524,0.614533816922087
5.438125742,0.427477597063851,0.816237963086612,0.717920096957005,0.346324527022268
5.446130781,0.335138665127247,1.15675943699951,0.0556255544205463,-0.515210200541842
5.454130195,0.171793338925258,1.16548652114143,-0.564053246211234,-0.678993534771862
5.462129453,-0.135040680749613,0.980829051013509,-0.700477411803944,-0.53294948599942
5.470129922,-0.585060279013197,0.76148294752524,-0.264751694664339,-0.729101948765083
5.47812918,-0.985969267467831,0.548517244035105,0.431843335638172,0.0150613901838471
5.486130508,-1.04314445344377,0.310573736645045,0.884855141541783,0.621460852757758
5.494133633,-0.639246792673718,0.0759046502439435,0.744177432980229,0.400868343869687
5.502137656,-0.00839556945493831,-0.0549695345217357,0.0553931614117036,-0.575764708581944
5.510139453,0.437249201096009,-0.0425934214432549,-0.775921111655443,-0.539884568598213
5.518143437,0.495056793469714,0.0268581190199037,-1.23824144852642,0.107058351799545
5.526147187,0.360793397880984,0.0703232049873476,-1.00924938297673,-0.210538641477187
5.534150156,0.382028137830537,0.127780097232315,-0.164631378047647,-0.86324120446059
5.542150781,0.642248767786591,0.271621982144835,0.790409358384686,0.430357638461364
5.550150039,0.867431373842778,0.450782611671231,1.20205003196247,1.0174021811175
5.558151328,0.755320539229456,0.514926237886718,0.782717667657866,0.424424457313912
5.566151641,0.302508706282044,0.380535120799737,-0.120222717527339,-0.785194787732807
5.574149453,-0.253282158532778,0.113342081108302,-0.835368374147484,-0.411742817540618
5.582149219,-0.709010981397605,-0.14064660581117,-0.942862310638258,-0.241370817748713
5.590151601,-0.972723766957017,-0.246532826158755,-0.541236392296975,-0.656920700155428
5.598150078,-0.93445024427232,-0.115461964139724,-0.0271637512114891,-0.563924420065204
5.606151719,-0.481839080935714,0.269266650259462,0.29274547297261,-0.216722268869391
5.614152773,0.282431038790522,0.807798119174637,0.382833534995695,-0.113834639446612
5.622156641,0.973003656956879,1.27829681862277,0.387355062424498,-0.0934223568784484
5.630162031,1.19898912286257,1.42889008816022,0.427271560642124,-0.029659065919322
5.638166484,0.904899551103356,1.1252545093303,0.468487679592256,0.00824523283488739
5.646171211,0.38461448887581,0.432734705244837,0.353319996754063,-0.173828460162567
5.654172305,-0.0276872107852535,-0.421690445274211,-0.0597311520848421,-0.73320709773722
5.662175976,-0.222033365052021,-1.15733284342787,-0.744872465013523,-0.553849746660886
5.670179805,-0.276610785397918,-1.55631137853696,-1.44119922977556,0.410821845872322
5.678182109,-0.253631144239781,-1.53839007376294,-1.77883880291043,0.886545763056537
5.686184297,-0.121855803756711,-1.15398587301467,-1.54504981551754,0.548908072292584
5.694186758,0.129327599058011,-0.524749506650544,-0.845459343608548,-0.442394606046329
5.702188828,0.391039613486341,0.183437861189748,-0.0165956919717146,-0.68368640735665
5.710189258,0.509295303200663,0.742700632730531,0.608898178760419,0.190027438597617
5.718195195,0.445537713058421,0.910835595515193,0.881398637970356,0.578242865166591
5.726197383,0.326241857295672,0.597538645337138,0.851196810928914,0.528814843649739
5.734201133,0.306987175969387,-0.0145906780854849,0.649430593467877,0.230330204683241
5.742201836,0.392603023811523,-0.580767923255989,0.335997717600345,-0.224257016109521
5.750199101,0.420690455545862,-0.855167636945286,-0.113635905282463,-0.855008476108771
5.758200117,0.23352627710776,-0.829663168648905,-0.636184735220927,-0.738112525557702
5.76620293,-0.149593190440514,-0.628102854104941,-0.97619432180947,-0.247196602234807
5.774205234,-0.540343935120531,-0.325179264596597,-0.857840997477255,-0.371174252370579
5.78221043,-0.742773941451256,0.0900027766491306,-0.264327099089573,-0.7597160864241
5.790212148,-0.686144594893203,0.606293067702176,0.481246993628656,0.059696061149392
5.798211953,-0.42368769340879,1.1103525049222,0.920638810116686,0.662696725399915
5.806211601,-0.0598367523099081,1.44691894486647,0.775731775887286,0.462714975825971
5.814211133,0.2922869928459,1.54906982003519,0.142026145821631,-0.375478848258198
5.822210664,0.51428671220109,1.46788510342439,-0.560221293599135,-0.664749569105383
5.830212344,0.521330722482348,1.25738253018812,-0.862339635720665,-0.35022702671179
5.838213008,0.34999251806656,0.876876360468824,-0.568942750426903,-0.720966810315109
5.846211016,0.171058719837109,0.264891512926299,0.121263606760763,-0.487079433582751
5.854213203,0.143842387981056,-0.492430950482435,0.76177661907331,0.387186084076173
5.862216719,0.246111746159502,-1.1375305575864,0.953952681799087,0.656822808187865
5.870215781,0.289507464791076,-1.44690234272262,0.611273465469152,0.170393321411745
5.878215742,0.12740980905177,-1.43910584451228,0.00863319696303136,-0.661213145909052
5.886215351,-0.171953245593324,-1.32907377300748,-0.42319257029606,-0.904253834925764
5.894215937,-0.377580979353549,-1.27737971553073,-0.402125444481608,-0.874230545349925
5.902216601,-0.304718494129297,-1.21731792345191,0.0120484325496316,-0.619502729398509
5.910217656,0.0367229747777139,-0.945982523279627,0.470186529948169,-0.0238929711667138
5.918218203,0.466887770617573,-0.366858786888079,0.598433874988092,0.148972319781651
5.926219414,0.760386483707078,0.385546443997224,0.282813130342559,-0.281018419421627
5.934218633,0.750364744843555,1.04448623582316,-0.242661181638688,-0.827582740154933
5.942216328,0.396630554469571,1.3935516832065,-0.585423117322089,-0.646237282060157
5.950213789,-0.158971892915391,1.36262860157454,-0.500136588120416,-0.672120104251643
5.958208125,-0.62691895677429,1.01044168016331,-0.055928809634654,-0.561939900660067
5.966203984,-0.760904563634013,0.470428667732243,0.423493460554691,-0.0164013489171438
5.974199453,-0.562576687372788,-0.0918551417860928,0.582811608488284,0.170807031473104
5.982192617,-0.26132330168841,-0.524148208819068,0.293612522319257,-0.251038919106668
5.990184766,-0.0647574926052015,-0.746405589835559,-0.239085584391873,-0.923648843945609
5.998178789,0.0359460708631574,-0.786583823442197,-0.631856305909617,-0.725332097142345
6.006174375,0.190934233783636,-0.729593805242387,-0.62155920517698,-0.75276210095857
6.014174453,0.471113929811402,-0.596344214529304,-0.246997711418714,-1.01734589524829
6.022176914,0.773804478846498,-0.311556580785846,0.223464362827611,-0.387539888882082
6.03017875,0.93734339859292,0.149748847620207,0.497919496875277,0.0114054733473732
6.038176523,0.903729749912176,0.620721771649544,0.431153589913586,-0.0663692772480694
6.046173555,0.746424501936055,0.840728894825154,0.105811389061053,-0.492410132715117
6.054171992,0.566480845945833,0.718012181470474,-0.211969794443869,-0.849331905969583
6.062168789,0.39979804278263,0.434158019110762,-0.257470577846599,-0.90595867375328
6.070164492,0.222777865139274,0.251757769310514,0.017645455626847,-0.62536647914156
6.078162695,0.0179201076939514,0.265167758494035,0.383628116749577,-0.124465462287762
6.086157734,-0.181806835802131,0.377356826433543,0.513394014894948,0.0668225825525039
6.094152891,-0.304421067007,0.468217840358884,0.26246738750707,-0.261327392276426
6.102150664,-0.28662957190095,0.503826417557908,-0.211364080940817,-0.780222271638781
6.110151016,-0.11770512309629,0.47288477390228,-0.578157942891999,-0.709472533731285
6.118152734,0.16315658050005,0.312201891308847,-0.579905417294066,-0.750198258827787
6.126156211,0.508695576786432,-0.00425874628340609,-0.187854590768867,-0.911331959652939
6.134154648,0.867514769522782,-0.332791087425522,0.414791710911748,-0.116888468752455
6.142152851,1.1351390838955,-0.434518543736349,0.944088135092177,0.637681137928981
6.150153789,1.16410556543442,-0.236034342004641,1.13847055345777,0.917311588121135
6.158154648,0.892941034763881,0.0279541480630967,0.884949168745768,0.558573548617244
6.166155391,0.459176047834231,-0.000633981339701582,0.291702178292408,-0.27675470410826
6.174153555,0.11907537576337,-0.442761468606464,-0.35961723902441,-0.985392398689458
6.182152344,0.0228876140188667,-1.00716002255289,-0.759451722051987,-0.556381721583085
6.190151055,0.10233649051512,-1.193767891375,-0.740229994173864,-0.58679217782196
6.198150117,0.194073983187142,-0.71137810892926,-0.379648636092428,-1.0085397878486
6.206151367,0.224345011399053,0.266707550917367,0.0408378931960601,-0.594975594142125
6.214150508,0.231822176325243,1.24157328968965,0.232604966258887,-0.285373566465945
6.222148711,0.242642454272346,1.76843719084517,0.138684610623561,-0.356976916423502
6.230144766,0.211018213627838,1.71994957365699,-0.00907623133340452,-0.520597901685838
6.238141055,0.125083283258787,1.25713831173057,0.0818925902250885,-0.464196481537681
6.246136484,0.0852054928973945,0.634403243783844,0.449661458450488,-0.0231202006027695
6.254132383,0.166361711789204,0.0598269053393241,0.787164853337563,0.429924742218543
6.262130703,0.243708149924475,-0.335746526843191,0.699240171953254,0.297453168384291
6.270127344,0.0963935805471811,-0.517846965062845,0.0990409168695994,-0.539656765409942
6.278123867,-0.292739102142611,-0.560133859466566,-0.64753738614866,-0.665688259987297
6.28612043,-0.66106430949302,-0.555178806921781,-0.997132663897305,-0.181513288586659
6.294118516,-0.738150043271747,-0.468539263039764,-0.67965214389061,-0.568407753920315
6.302114101,-0.504518167960445,-0.134639405419639,0.0775467616617039,-0.503702147127371
6.310112383,-0.14057351863073,0.530447840348702,0.738099021227279,0.381110455452867
6.31810793,0.190944506541411,1.32724146903245,0.871635777092342,0.583623857100555
6.326102305,0.439801810887654,1.86799609849145,0.448280566046395,0.0309548638398685
6.334098594,0.591815337165681,1.90702923147248,-0.179847230864586,-0.652352290473144
6.342094883,0.59285987785607,1.53581363571826,-0.561484106340049,-0.657615024136097
6.350091719,0.39111001237009,1.0297030221737,-0.467341074109961,-0.789685813095806
6.358086484,0.0230159076166604,0.557875784293382,-0.0147299346372001,-0.628190357232181
6.366082344,-0.383979477693099,0.112535069004272,0.452459380043584,-0.0137247299739971
6.374076836,-0.697102428957213,-0.316467677514781,0.611655364163604,0.214886375044651
6.382072539,-0.851685046690605,-0.622778479413421,0.374370431945235,-0.0985562229168136
6.390069336,-0.842117037922486,-0.687601105360962,-0.0722038157569557,-0.63829920331353
6.398065547,-0.671791901936576,-0.539628165204745,-0.411687226839181,-0.805651392370621
6.406062891,-0.345270281781576,-0.340388002305505,-0.423725245082746,-0.859805745120895
6.414062695,0.0921854858460251,-0.20288523481963,-0.13353935923169,-0.82382132564696
6.422063476,0.533706407342885,-0.0759038301873613,0.220495892397817,-0.380608375456531
6.430060898,0.849755597438699,0.157611614945092,0.364085726841304,-0.176789289270018
6.43805832,0.95540321034857,0.503923691292222,0.177546927366739,-0.4208951003107
6.446054609,0.841661842594184,0.83196670654485,-0.209449282957436,-0.841536177703706
6.454049883,0.553880604552959,1.01941184321285,-0.489727311734278,-0.785350005513727
6.462044375,0.159386435774564,1.06748901891029,-0.398402213463155,-0.79740524966489
6.470038359,-0.258703333990644,1.03235418064075,0.0667541039520274,-0.472811003516952
6.478032031,-0.591808993522527,0.895132736561113,0.60039117162046,0.224490614787883
6.486024922,-0.725481173329151,0.589196625803806,0.796925680508888,0.489860541735428
6.49401957,-0.603739316615728,0.161330709238034,0.478409670982983,0.0364322955691172
6.502016172,-0.277237375796793,-0.188774345602045,-0.148701933732782,-0.787377397197637
6.510009961,0.128686449411216,-0.310875698546448,-0.66725425101265,-0.677086683966187
6.518006172,0.500646140228782,-0.301524995330291,-0.787827072601653,-0.534805332211974
6.526003516,0.792271475693608,-0.390116694041374,-0.526284544045429,-0.908073396132847
6.533997031,0.998285820757819,-0.627986076154294,-0.100181785440571,-0.85476424410733
6.541992539,1.09192743820661,-0.79849760015009,0.257303270433142,-0.346684385046567
6.549984844,1.01165726969785,-0.677607908726953,0.38760119636965,-0.160038555290648
6.557977226,0.716610629703224,-0.302126848020887,0.25164819475628,-0.346642695814129
6.565971719,0.245466143034947,0.0892861761497797,-0.0288297576653074,-0.69556000817412
6.573962695,-0.284105458583131,0.324105038303848,-0.222321887962484,-0.805040555638421
6.581953672,-0.719866615070513,0.420150789154409,-0.160263576624978,-0.683631244990976
6.589944453,-0.910334350556377,0.478519103810639,0.108456631925528,-0.393920522057965
6.597935898,-0.745502723094342,0.547687464366364,0.345132292818736,-0.116980306793711
6.605926094,-0.246870696296711,0.610945276744477,0.313876710142758,-0.190952270487712
6.613917305,0.364078636638914,0.647550684607285,-0.0239857385288244,-0.655965484623576
6.621907812,0.75993886327572,0.645705139820139,-0.453720674402429,-0.874535910131124
6.629897422,0.752334323311113,0.560519975643929,-0.650105452353691,-0.678336308114395
6.637885273,0.458903496969697,0.326907873325169,-0.438339718196064,-0.911953942327072
6.645874414,0.189206460466151,-0.0380436375476521,0.047611536104274,-0.599722390591697
6.653866914,0.147313970865283,-0.374282877579836,0.455093719024372,-0.0453398963608435
6.661860312,0.264462581621845,-0.497095702715991,0.486135588156072,-0.00699152316096099
6.669853437,0.322027333512965,-0.409153062790516,0.137167940529738,-0.497982991184393
6.677850273,0.200352323298594,-0.32940645027743,-0.302194115422815,-0.989208036122833
6.685844258,-0.0205573249213326,-0.439695874823034,-0.482694503912699,-0.880266253341085
6.69383582,-0.178004605581639,-0.625602163565829,-0.249816914984782,-0.905324653735634
6.701829883,-0.18701701584347,-0.536637414954592,0.262066723143202,-0.299154092612937
6.709822656,-0.0793040517245567,0.0654598532255568,0.72048041376868,0.343371815309034
6.717815117,0.0644912499382188,1.02549355440093,0.789513579668298,0.461694397848239
6.725809297,0.187877461719888,1.86609146064977,0.344371396633004,-0.0958189620639082
6.733801055,0.279951429263739,2.13718060913416,-0.39291211173448,-0.640346484862199
6.741797695,0.352120259665141,1.72663328098691,-0.950885387526969,-0.196943845817573
6.749789922,0.401982006939904,0.892718010989456,-0.944834226250176,-0.26371362403796
6.757782148,0.389913008717685,0.0410075663301823,-0.378200454673642,-0.976581237263359
6.765775391,0.251064085539878,-0.537416228784951,0.359341397237055,-0.186092313978884
6.773770351,-0.046170389268884,-0.791168199021137,0.781153721901983,0.418601013885663
6.781764141,-0.430406634226994,-0.874883351323154,0.634572922893646,0.227880098676254
6.789757969,-0.719097689155365,-0.994722815858497,0.0418547391628989,-0.534862651284737
6.797752773,-0.717231745208941,-1.21080299198535,-0.599438988469937,-0.660487456955252
6.805746953,-0.369142613155065,-1.35116065373804,-0.878589526370868,-0.362708547696221
6.813741484,0.174773631205987,-1.15042715010068,-0.651405746986943,-0.711993837574488
6.821733828,0.658751142103856,-0.523040370156489,-0.137127019263404,-0.895026319528521
6.829727539,0.905316731918564,0.293063002897405,0.262608219534502,-0.314013243759234
6.837720547,0.904535147443173,0.896148072367756,0.285197010226993,-0.253154409380484
6.845714726,0.737261389447601,1.04233682577713,0.00280555749941258,-0.601803138070866
6.853708359,0.459875134759125,0.813026702266932,-0.273054292229149,-0.862599260156218
6.861704101,0.0998664134658726,0.483400040115965,-0.268432349875781,-0.869227972653848
6.869699062,-0.278297533644841,0.256796420721236,0.0487397055284268,-0.544922857017222
6.877697109,-0.574815317974771,0.144784517140335,0.460559573062425,0.00996528133058234
6.885691992,-0.731274523820944,0.0720766059144643,0.662531835659284,0.293271968548863
6.893688047,-0.761394951794821,0.0199801544748053,0.499865560630463,0.0726188911632296
6.9016825,-0.684166294013673,0.02138866041007,0.102458004724814,-0.447971647889479
6.909680937,-0.469746083649755,0.0498308033712084,-0.222094493463675,-0.795727830723741
6.917676367,-0.108322422638248,0.00409929220630084,-0.267635598394477,-0.889035832208441
6.925669726,0.277040205517638,-0.138263856903191,-0.102405260969276,-0.802959664783095
6.933665508,0.456648965883796,-0.209193013637304,0.0477278682325027,-0.621622063051773
6.941658828,0.290002545854896,-0.00084921314809778,0.0384939162913895,-0.616399855860838
6.949651562,-0.11174945825322,0.458634414001424,-0.0983302931651097,-0.714135452954285
6.957643828,-0.466342865858706,0.868053534363874,-0.226624881675611,-0.721553016162918
6.96563918,-0.582614454694911,0.944919460830216,-0.212338342172712,-0.688029420551235
6.973633516,-0.522312995211764,0.707092832593642,0.00579088377225103,-0.538785253466256
6.981625391,-0.489248412924227,0.41768259043229,0.375494443505165,-0.101315645411406
6.989622578,-0.574411032757715,0.298213319894818,0.725328350683867,0.376168888811252
6.997618984,-0.643210715140147,0.355577455763596,0.836223254596034,0.534356931668615
7.005615078,-0.492640005911827,0.462067862964352,0.574240375853512,0.168620344294463
7.013611641,-0.0905610727719727,0.525982846453623,-0.00623680305582064,-0.610721702472142
7.021606758,0.384426084189333,0.540147915917082,-0.657367206710668,-0.65700749004954
7.029601797,0.732367370020612,0.500434984821298,-1.05203619937914,-0.143538569432833
7.037597539,0.912300330348964,0.361142975081968,-0.971091594271185,-0.262986454251184
7.04559082,1.01777522330663,0.104724853108491,-0.448497746492544,-0.957110951643296
7.053582383,1.11266756313542,-0.19172360347058,0.222664937354078,-0.386131507377692
7.061575195,1.13178222070777,-0.414554963125862,0.661659613033969,0.234433728898537
7.069570273,0.945056339642659,-0.528345364877282,0.668541410337085,0.242677529467346
7.077563633,0.507795198027663,-0.582898605254221,0.36240401595083,-0.189908650204884
7.085558711,-0.0572499466204171,-0.60979349615767,0.0460021901208579,-0.600222937790999
7.09355332,-0.526788342400798,-0.564066959237834,-0.0640725837363343,-0.67735002101907
7.101551445,-0.72144798968773,-0.372207580804501,0.0239967026651256,-0.547981398348763
7.109550469,-0.602683901691182,-0.00371678489242221,0.158419792488449,-0.388802307225074
7.117547187,-0.278195250646377,0.500444512171445,0.191337846334126,-0.353949215718196
7.125544883,0.0570149458354297,1.0318314426613,0.0627513378743041,-0.501806373180959
7.133540742,0.212731968329206,1.42471343721138,-0.159764706684425,-0.689114950497704
7.14153875,0.105940837706311,1.49136760119663,-0.305476255178803,-0.734290931557952
7.149534062,-0.173354703531291,1.11795291806109,-0.232998514234678,-0.735254057683696
7.157531406,-0.40846600228756,0.385780850425192,0.0319002725318219,-0.544079182169377
7.165527148,-0.420471059061829,-0.403221565501018,0.297177025450859,-0.233262956695284
7.173524726,-0.214657806367287,-0.895960879904831,0.353523908857174,-0.174278022867669
7.181521016,0.0429266127913982,-0.95894277628748,0.144151591866,-0.478402708911272
7.18951918,0.197089250291751,-0.777014145263682,-0.188659094062078,-0.921991019273002
7.197514023,0.237601144946269,-0.646725608300021,-0.404524025509907,-1.000086030575
7.205508906,0.265590287708407,-0.667636372615247,-0.332378532987405,-1.03239360776937
7.21350457,0.364989688415849,-0.641792239470658,0.000178190839055689,-0.694038717685511
7.221502109,0.532642025941245,-0.277048447375373,0.368932121324442,-0.176668028851176
7.229499258,0.707241782901948,0.504320450581009,0.499178139616999,0.025490250713008
7.23749418,0.818740488266516,1.44872088618215,0.26782243396654,-0.239306027180485
7.245485547,0.80044380437734,2.14250654089432,-0.178462896504147,-0.61989396281333
7.253481094,0.602193838937046,2.28984346963892,-0.510695285571694,-0.583508247097609
7.261478437,0.244765767029036,1.86024200792909,-0.465948615018321,-0.656691194202306
7.269474414,-0.148303803998514,1.05155207256687,-0.0491730991716573,-0.605770294344429
7.27746875,-0.419391681904891,0.174423052026159,0.461172566383192,0.00190510560897331
7.285466367,-0.496394804602578,-0.47520399337375,0.699433470460357,0.323758105430417
7.29346332,-0.43494920213363,-0.749362923688298,0.471750888233083,0.00248340110639719
7.30146293,-0.337051260040572,-0.71457625884999,-0.0902823116125642,-0.73617115199187
7.309460039,-0.239513026381605,-0.575742557745755,-0.604763809340454,-0.723042265486884
7.317456055,-0.0960994770767225,-0.509854762181574,-0.717041927289868,-0.598419819101497
7.325451094,0.136257287229821,-0.541224624158243,-0.377084199512583,-0.989750656808807
7.333444141,0.415343267263727,-0.551879603482198,0.125224225551875,-0.521590879625208
7.341435039,0.635168692848858,-0.412183862149919,0.39202014560349,-0.148147935732566
7.349426016,0.725385327773352,-0.111995418813159,0.220025051828185,-0.386432122939116
7.357419531,0.701112557895073,0.231208158456898,-0.243559774200785,-0.948849187409663
7.365413672,0.599811048231755,0.491564400788036,-0.608365936065199,-0.730458072777861
7.373409101,0.402490181856885,0.63897101874768,-0.537100076473597,-0.782951861273876
7.381402539,0.0679701781827184,0.701379956249198,-0.00169289143037854,-0.605272334831966
7.389395898,-0.345338369701038,0.664996477123386,0.681824170690547,0.315259069070971
7.397392031,-0.637507219439632,0.489696935729933,1.06118375579979,0.850271314282678
7.405387187,-0.596704518025852,0.233700351138336,0.85873447511812,0.560915338304305
7.413384648,-0.17732855512891,0.0791886393565234,0.16512947687316,-0.414353880830524
7.421380351,0.457974212734942,0.146467751657669,-0.617458406574113,-0.740272335401323
7.429375234,1.05399721635714,0.306245495941277,-1.04328693988412,-0.164267576778217
7.437369336,1.40614422995108,0.284442989404901,-0.911995488299252,-0.342434711996394
7.445364258,1.42661904752526,-0.0130698161279269,-0.368835201520156,-1.0017607226871
7.453359766,1.14531967621459,-0.358599487019425,0.225712823297263,-0.385519753238206
7.46135043,0.69188321067543,-0.441099713716995,0.54160830457901,0.0637401493684095
7.469340781,0.244356256049057,-0.202266295090615,0.486394448477576,-0.00170115668153975
7.477335937,-0.0764194147215851,0.122314307331931,0.235165645116317,-0.326501903928957
7.485329609,-0.291333453988512,0.260684551504301,0.0626096400363672,-0.52661012524899
7.49332457,-0.507942197290727,0.140404571534177,0.116220961475394,-0.445249910064176
7.501317578,-0.74783269419444,-0.0938970186075129,0.30941513096077,-0.184321119415057
7.509313086,-0.864476778563613,-0.214868729271328,0.416859187580441,-0.0355815675425017
7.517308594,-0.691621799451578,-0.065664122396294,0.279087089202466,-0.228025260504856
7.525302422,-0.262258232356971,0.338415926945903,-0.0662538394875076,-0.672766060158192
7.533296641,0.176758222004919,0.790937203489989,-0.416318083687845,-0.832466653364644
7.541287226,0.386106179282112,0.992156843000689,-0.555886862240184,-0.722524986880425
7.549278437,0.347490681131124,0.751614053764462,-0.407615077715778,-0.859445404035349
7.557273086,0.243129290786731,0.163130067368786,-0.0701174969299409,-0.741207497625554
7.565267461,0.23925369795141,-0.426293167029903,0.249987287561489,-0.337495636214731
7.573263398,0.317777942504559,-0.686639455687516,0.358467358859262,-0.191067450172629
7.581260469,0.332099140864023,-0.590154359725385,0.203808136664715,-0.408594616056942
7.589257148,0.2105053367654,-0.406320087033837,-0.0729097362035185,-0.773122411721158
7.597253711,0.0690125473554495,-0.393188058311181,-0.236075782489266,-0.931574192740711
7.605246992,0.101649800375947,-0.522645165685004,-0.139892378509992,-0.84723367522152
7.613243633,0.370001340528698,-0.533195581822764,0.149785506267998,-0.485002584143555
7.621239101,0.720241723176278,-0.231769197891234,0.40779002394612,-0.123819613547622
7.629234414,0.91223836263249,0.30172858850502,0.427471288945715,-0.0833126081552447
7.637231289,0.823727822826817,0.819466188706606,0.168525966224424,-0.413151376623684
7.645232734,0.523704486127478,1.15589515541649,-0.21870022765595,-0.787224122980767
7.65323418,0.170164251155118,1.31716438201761,-0.498667387447327,-0.711182690790326
7.661232305,-0.121902097472336,1.34600381616498,-0.516502818446215,-0.66736169187679
7.669232617,-0.315730712698891,1.18481229424029,-0.29005793002184,-0.72631036713612
7.67723082,-0.415572275691461,0.75117925015662,0.0390465931054833,-0.510870288584079
7.685229023,-0.435748343822666,0.143868244022294,0.328765496418086,-0.176622710241811
7.693226094,-0.390907603027932,-0.307725326374083,0.51872743774987,0.069190730937941
7.701225508,-0.283013912431103,-0.266766586580357,0.6079555214934,0.188335862493582
7.709224844,-0.0992333328486494,0.311497575310842,0.576536309845502,0.148647897893406
7.717224648,0.152637826062381,1.09495735877592,0.364969659885298,-0.118406905228233
7.725223906,0.407555741719945,1.6038114336742,-0.0355329470011969,-0.570587722595697
7.733222695,0.568123160348677,1.55327127668088,-0.476640949293825,-0.716096353209739
7.741221875,0.583574097628013,1.01204161640762,-0.69924233961224,-0.574019884982723
7.749223594,0.499385593524771,0.290086284649461,-0.53743412609055,-0.825968822915029
7.757220781,0.412394964320959,-0.283618505872488,-0.0749992989972607,-0.78686707361801
7.765220039,0.372285659900636,-0.516868225569237,0.398946692723585,-0.133818625551655
7.773215859,0.340252562968661,-0.413667508319024,0.588930615990909,0.137625138084717
7.781209766,0.254818205309508,-0.160874660655325,0.392673949618908,-0.133026278104725
7.789204297,0.128315198994526,-0.0110137649461127,-0.0347471370123371,-0.699399380972235
7.797199258,0.0541419137935236,-0.0899141399137126,-0.391906760101653,-0.932894479879679
7.805193086,0.108813960750073,-0.284380062882494,-0.449150824062569,-0.921813217020356
7.813187539,0.259909007571315,-0.323805756657325,-0.213763333988675,-0.937420956955785
7.821183906,0.382381851073246,-0.00199373945131688,0.103119009694564,-0.534551336777576
7.829178984,0.370856904896629,0.632897635030233,0.270113951703121,-0.278137082186038
7.837175859,0.233611141310613,1.28059262823409,0.193218626914395,-0.332473815055614
7.84517168,0.0564348599155136,1.59626766514519,-0.0456602361671441,-0.560301755498911
7.853166719,-0.125630779453761,1.44282610348149,-0.260535154147445,-0.706858774071325
7.861160156,-0.372597737857718,0.976869189213759,-0.28774971541364,-0.74444787435292
7.869153984,-0.721171341547335,0.497659156029024,-0.0918084083071014,-0.623236529241778
7.877149453,-1.05587346432602,0.208138961190109,0.198844441565879,-0.283259008558957
7.885144062,-1.15995968137401,0.0936664754171944,0.357376500612672,-0.0795746139831801
7.893140039,-0.910004336268499,-0.0106876292574569,0.216277137149841,-0.285314719831909
7.901135312,-0.392453214349404,-0.241598605242582,-0.185168652891681,-0.802602531333454
7.909131914,0.176966890606559,-0.571597680923286,-0.593977924560856,-0.783944705335624
7.9171275,0.624082238397615,-0.825032538002717,-0.715370447708076,-0.650310594628451
7.925124062,0.905802329072102,-0.815352533827826,-0.441743889924713,-1.04559027600389
7.933120469,1.0676146050281,-0.495291019954002,0.0608191547818917,-0.62309985598607
7.941117734,1.15280284626492,-0.0176828960743079,0.476960054935733,-0.0216926603434438
7.949116875,1.15194794908924,0.355822604799706,0.567532749563902,0.116119887732244
7.957116641,1.00375223613142,0.452819041422611,0.333661334509814,-0.208778374583094
7.965115351,0.639730385472415,0.330199442864661,0.00156792519625688,-0.661401913086592
7.973113828,0.0722348953920212,0.210624089109984,-0.160019170392189,-0.81814100873806
7.981115234,-0.537164038125412,0.26409898650842,-0.0444747115066965,-0.620011094337478
7.989115312,-0.93248124856286,0.458100407228089,0.219721541745653,-0.261271186945415
7.997112305,-0.942282385997748,0.617064932414909,0.377465489782205,-0.0561250466602684
8.005111758,-0.620196972690314,0.59860227936467,0.246054229320174,-0.251809775300925
8.013110078,-0.187765727619281,0.401480678193067,-0.144527949745463,-0.753687655256182
8.021111172,0.160040590972868,0.122166951062215,-0.555531292656144,-0.792154275153946
8.029112773,0.376275294124129,-0.155912701258043,-0.692665842291473,-0.654471483845156
8.037114609,0.51691847295063,-0.396169583109168,-0.419060425186982,-1.01646016833484
8.045118047,0.626391038409897,-0.555505030684231,0.132659443461584,-0.518290040759139
8.053123789,0.684221712119513,-0.569576176174561,0.634380675299747,0.194962343139432
8.061127539,0.638712430089077,-0.431637306042934,0.777284475512437,0.400638936820124
8.069130117,0.461545787062019,-0.252497085338653,0.492226561189436,-4.48399219871868e-05
8.077134922,0.166163213329696,-0.181071137483885,0.00141991760013819,-0.664726649172818
8.085137148,-0.203002211173862,-0.253784762339118,-0.357253181775623,-0.906543692136476
8.093138086,-0.567572632233083,-0.35297263350162,-0.386120909051408,-0.82932998879199
8.101137656,-0.795484764302209,-0.313241052840251,-0.149121905357579,-0.70489214515337
8.109137617,-0.738121965618423,-0.0440655707704048,0.118992836631801,-0.424337444339833
8.117140039,-0.361077341620296,0.436273182801779,0.200032095441317,-0.339527012490502
8.125140156,0.153336254003177,1.02440471081093,0.0324269744083576,-0.54412634398808
8.133141797,0.49357117650861,1.53964081062518,-0.246683574816799,-0.739527809034157
8.14114375,0.469804341201366,1.74698052640711,-0.384822508236546,-0.717227548582527
8.149144414,0.188774585474127,1.48352121517809,-0.20366562833825,-0.706803936416211
8.157144297,-0.0582579463566355,0.829907768416068,0.238257165324171,-0.290170312651377
8.16514457,-0.105113489865572,0.122385128516692,0.644892522676833,0.239519476045791
8.173142031,-0.0779701024674713,-0.283045970117096,0.672021653703335,0.269480077328977
8.181141719,-0.21459105173267,-0.295343206642568,0.202296244806581,-0.373759594104449
8.189141172,-0.536181812791797,-0.122571021822767,-0.499613520220235,-0.762237037772969
8.197139805,-0.771943566048341,-0.0208777654927717,-0.916369011331931,-0.266374570007705
8.205135664,-0.646553039939452,-0.039443060201157,-0.659624505818041,-0.588984535791302
8.213131719,-0.193108206434052,-0.0192872350849015,0.176893043169378,-0.401263921112533
8.221128516,0.274361243507861,0.187675356356527,1.03067522092676,0.77491853505569
8.229127891,0.478665989867113,0.534889745219136,1.27994151598835,1.13226850184524
8.237124726,0.417573489263198,0.825328258770784,0.716780854823439,0.345216882597563
8.245120937,0.288796984481301,0.904575801236715,-0.294687686949156,-0.8403243317598
8.253118008,0.242678746053219,0.768244522986728,-1.09816478138333,-0.0576733563072023
8.26111125,0.251806069272675,0.490948715770482,-1.22077350969283,0.100852083710763
8.269105976,0.188734885940484,0.120016649180641,-0.656908941840928,-0.674430311691273
8.277099648,-0.0279183019300599,-0.308054790647061,0.197361157930398,-0.393503907925148
8.285094062,-0.363799046341113,-0.693395276639689,0.829458100588141,0.498665577711784
8.293091601,-0.683470575754481,-0.912634705393115,0.904943454121633,0.618050292871871
8.301090351,-0.800741095499423,-0.945741988884741,0.435743355696046,-0.0220081482689746
8.309088906,-0.573205692921799,-0.891260357138379,-0.234930943646817,-0.81981045925533
8.317085937,-0.0321374503823732,-0.816352703591279,-0.652716507374921,-0.692023205879605
8.325080586,0.578843989411155,-0.634413924164169,-0.5710673625945,-0.847452044117082
8.333077969,0.957495269354632,-0.200348704896206,-0.121949914044827,-0.864967391980046
8.341075,0.974163742397309,0.461211321982543,0.298621232910305,-0.257015140514365
8.349069883,0.742304839718901,1.08363693384869,0.337217175558012,-0.17105848169975
8.357064922,0.452651394655561,1.37138076370217,-0.0353105054048673,-0.599642838041494
8.36506332,0.167472109218846,1.2784533213943,-0.491329564266781,-0.721211415935745
8.373059609,-0.191487430836364,1.03180029035568,-0.614287672718259,-0.613587975345714
8.381054297,-0.672148597754693,0.878518455031682,-0.248800756979211,-0.696447245140721
8.389048867,-1.15723815872145,0.864035918029333,0.370976309224239,-0.0343745031758348
8.397041133,-1.4260303857556,0.869017870528382,0.817611803954156,0.568429532854106
8.405035117,-1.34206432514157,0.792603324070594,0.794707597398759,0.529652102420791
8.413031914,-0.958085250516219,0.638297458006325,0.325563986695967,-0.119755468475004
8.421028906,-0.442286785174297,0.436622456591222,-0.280934607667548,-0.792629502478743
8.429027422,0.065570138667216,0.16385190831511,-0.63696377502811,-0.685948597972979
8.437023516,0.514824972945414,-0.192748833100232,-0.529431858750051,-0.877099807674643
8.445018437,0.890077176580157,-0.520502438045923,-0.056840921943076,-0.790258123377431
8.453015664,1.14039568287842,-0.630600329232439,0.432272971283429,-0.0951512639701833
8.461014805,1.19089769975821,-0.453621229992672,0.575931983694241,0.112086314929239
8.469014101,1.013337192663,-0.127921678066769,0.279515397193422,-0.304691222395647
8.47701082,0.6521048056947,0.144528195635778,-0.192674226904163,-0.910752326624002
8.485010469,0.17841647497012,0.290707047644117,-0.430729667886477,-0.89021420399069
8.493009805,-0.339879771657822,0.383384679985366,-0.227708020473993,-0.793269198084927
8.501008633,-0.797303497978735,0.506520306903329,0.247893964823536,-0.237798147742266
8.509007695,-1.02468671264556,0.647165606815651,0.606680648401289,0.251628794304281
8.51700668,-0.878434198637348,0.711733280682895,0.545560544703563,0.162245263513475
8.525007617,-0.381548586155298,0.621660576321349,0.045448160508865,-0.516198102723787
8.533006328,0.248827133838179,0.380467020652608,-0.618504667859124,-0.707559113983497
8.541006601,0.743284959656176,0.0643017092440798,-1.03727905960496,-0.179519630404587
8.549009258,0.957043136248857,-0.221826585900774,-0.9336465127971,-0.334937842071031
8.557010351,0.905593853228384,-0.384708555030853,-0.356176306760551,-1.09754752261347
8.565007734,0.654016629674167,-0.385418013847458,0.344991338560159,-0.214870774276784
8.57300582,0.222751268962744,-0.273516930213963,0.746585886230833,0.365906909801197
8.581005703,-0.372171538846845,-0.165854432352773,0.633358583120059,0.229483875748916
8.589001914,-1.00812415123021,-0.149005193790595,0.139615186214445,-0.371152648991722
8.596998984,-1.44066710159772,-0.187071819718339,-0.343595895372573,-0.637421042616886
8.604998047,-1.4473358783986,-0.150663934771545,-0.450011228680987,-0.611752096405268
8.612995351,-0.995460025285616,0.0529186879914577,-0.125484530881172,-0.633864496509387
8.620992851,-0.27120840754338,0.398337035302122,0.323740890810721,-0.18532076549585
8.628992226,0.430708117231325,0.794503580068898,0.478989578508552,0.0132704970011979
8.636990781,0.849811153786205,1.18075381436133,0.153905004559043,-0.40597230081611
8.644992773,0.866214488439721,1.5267303215944,-0.431186685820346,-0.75196886819422
8.652991016,0.550939107569028,1.7466878558357,-0.806430854443473,-0.376890194096307
8.660986016,0.126889537226404,1.68258098752357,-0.630208580571421,-0.552977828965512
8.668979648,-0.172834002177834,1.23967519637989,0.0412106633881936,-0.490846094617213
8.676976992,-0.260335394847401,0.551906324707896,0.798994935053783,0.470985715960237
8.6849725,-0.229172248031502,-0.0479950273749905,1.17272087673619,0.984651867541582
8.692970976,-0.234772634573591,-0.300899047846925,0.942641155567505,0.656479015157392
8.700968906,-0.318832735570461,-0.261508055524405,0.276482291568873,-0.265795920544667
8.708964609,-0.347996384786084,-0.202999352076122,-0.374923297885528,-0.869845147083442
8.716960664,-0.157507670034549,-0.274899080685779,-0.588160358361278,-0.742723282742242
8.724957109,0.231498292898927,-0.335606704146095,-0.298418837156892,-0.994190138702019
8.732952422,0.579198174965657,-0.187771613981152,0.155939288672008,-0.475498635598029
8.740948984,0.652333528762805,0.0793961344045225,0.349889678553529,-0.197018164034058
8.748946211,0.458697899836831,0.113073266799639,0.1510215629705,-0.467439718697086
8.756946875,0.209917820292696,-0.295964298355373,-0.194444016814074,-0.909546942151202
8.764947109,0.0714047379187409,-0.913879586538475,-0.346846141215116,-0.994704170277765
8.772947851,0.00882524718422989,-1.26014807394186,-0.227953720376951,-0.925173401307955
8.780948164,-0.118778213867197,-1.09184035797821,-0.0602416532180054,-0.731162499678266
8.788946211,-0.366769352606867,-0.620868115711284,-0.0707899944732882,-0.708831885288596
8.796945586,-0.630240301930282,-0.236410044188547,-0.213880249112415,-0.777922586787727
8.804945508,-0.740476536906569,-0.0809193007699168,-0.229709018207147,-0.756546044107418
8.812946289,-0.614574505403623,0.0463813574749953,0.0382456247317386,-0.530676768410288
8.820946523,-0.317270376118217,0.398979472164309,0.435522470536666,-0.0319849502098382
8.828948086,0.00189390944140781,0.97361847477202,0.602853507807203,0.203722833960668
8.836946289,0.214685277941072,1.51817700286546,0.287855344958617,-0.194347652346296
8.84494582,0.263926826468618,1.79307572893404,-0.386586633628491,-0.69645699131446
8.852942656,0.151741472166118,1.76032395266192,-0.951901517805996,-0.18572523105801
8.860938594,-0.0808185494959133,1.52904931460598,-0.952592175954107,-0.191395263965269
8.868936601,-0.369597726635537,1.20964689581178,-0.329824575301872,-0.720001706594031
8.876938672,-0.643852803456088,0.888218692040523,0.51286674970752,0.110005746411046
8.884940039,-0.834183687724804,0.671483745474093,1.01134317919625,0.793439654981411
8.892937969,-0.881519657250486,0.619594559551979,0.843072941012608,0.562297458728112
8.900935547,-0.76053475752533,0.621143097498473,0.132164877988754,-0.375917370211872
8.908934414,-0.495373606335359,0.443331458630582,-0.632926085188783,-0.609924343774996
8.916934805,-0.141788501132765,-0.0239428532224921,-0.926562100706196,-0.303495422509171
8.924934492,0.243833610664433,-0.597290833774325,-0.58251725668394,-0.805683327029739
8.932932969,0.611667432320536,-0.918883992388374,0.0709991788507814,-0.608622417324772
8.940934219,0.912562138040541,-0.764049067303334,0.486510590861159,-0.019090990470993
8.948935586,1.10136706300625,-0.23453109775757,0.347085315943563,-0.211082059565775
8.956937109,1.12749520081591,0.344762304471773,-0.184213529475447,-0.884907599213441
8.964936016,0.913770462642074,0.715285543485182,-0.613755334568876,-0.709762550339928
8.972933945,0.389863242177217,0.867613912625323,-0.523081431345886,-0.768081933315756
8.980933476,-0.393069693882521,0.94543412459082,0.105738715293697,-0.422524004296799
8.988932891,-1.17087102232184,1.01597971035057,0.871655574789775,0.629254716284911
8.996935039,-1.55370293462362,0.981229246051409,1.24249514443457,1.15646657336152
9.004939375,-1.29248849470624,0.709717704901595,0.932322866906084,0.710255385055809
9.012942383,-0.49594364310964,0.216656912949797,0.0950504864826505,-0.468962898213202
9.020945391,0.427763088106629,-0.325765171247155,-0.770393590710924,-0.556833337998003
9.028943242,1.06425210840148,-0.750778990042378,-1.14016394716571,-0.0476225666122468
9.036939609,1.25808582131699,-1.00274996029548,-0.81984695288116,-0.503378261335332
9.044937461,1.14267018506639,-1.05979625994447,-0.0749359063167839,-0.820194558181295
9.052935859,0.964414444836997,-0.854985702847173,0.553707844216916,0.076700704046793
9.060930937,0.876423550991269,-0.382530867522605,0.615576292910376,0.168653948702651
9.068928867,0.842778676858087,0.162779908221398,0.0722484704581171,-0.581761278939984
9.076927812,0.700463874255643,0.488674562588647,-0.648030494452368,-0.685712373180626
9.084926406,0.330093018962775,0.486860453919875,-0.935454898073221,-0.29523616269525
9.092924492,-0.198390726269169,0.344647110461172,-0.45552922647329,-0.814202288070392
9.100919726,-0.636249566531848,0.345520392217613,0.554498486492282,0.146643312950391
9.108916523,-0.735586396544257,0.584259848166123,1.42334361497932,1.36374978294811
9.116915156,-0.454309265591584,0.884277855433503,1.52752159457995,1.50763669534657
9.124914844,0.00307837331829778,0.972937202252477,0.732076635581969,0.381937459704674
9.132912148,0.347727697539234,0.720486300112251,-0.503062302258903,-0.800696831139004
9.140910312,0.416214094062151,0.220633848109244,-1.41149708483418,0.357828340694516
9.148907851,0.252942244603662,-0.309250609381209,-1.43050741953578,0.379184219917477
9.156907148,0.034937106754525,-0.663689153203693,-0.580915605974706,-0.787130668491966
9.164903047,-0.0666189532053153,-0.725895486390699,0.550870640233472,0.0944084281462809
9.172899961,0.0105177389948447,-0.51321758715106,1.22144300621503,1.04375816422906
9.18089918,0.19972097624431,-0.194833996172554,1.05256048593835,0.802089661877446
9.188896914,0.368186995671202,-0.0090783524436054,0.283181128358818,-0.286086006510091
9.196893242,0.407816903001208,-0.0932440299647278,-0.438326439655203,-0.956512781037057
9.204888711,0.294145735312439,-0.367767304205728,-0.573880338350263,-0.813318026819466
9.212885664,0.102094816492287,-0.574935556495425,-0.118578911238342,-0.823934865393275
9.220882187,-0.0284586929398958,-0.44296524309839,0.45099403619044,-0.0449379255208338
9.228875391,0.00912868386610084,0.130195669735198,0.628271932943931,0.212248603678122
9.236869844,0.185388428737791,0.989027094080235,0.282787745678153,-0.234679550397706
9.244865391,0.336409298960994,1.78450587012709,-0.281382980648219,-0.701556524452889
9.252863516,0.290803944384554,2.15167966601122,-0.594678369954203,-0.532735499721292
9.260864062,0.00780283458177387,1.90558735663253,-0.390343754410971,-0.656942853353743
9.268862539,-0.397328705037384,1.15961040098712,0.20268823210492,-0.291217971451526
9.276862344,-0.741614530184736,0.288635507794249,0.762896829197079,0.436475835891552
9.284863867,-0.883836112211885,-0.297879121594206,0.883312593469581,0.601197171087053
9.292861094,-0.778207420299555,-0.452657316745691,0.454667592731986,0.0047132987859012
9.300862969,-0.462545085823971,-0.376483831508216,-0.266772031847324,-0.845514646277515
9.308865547,-0.0314027738912823,-0.367170602797378,-0.810243283421137,-0.477003717208783
9.31686582,0.371205035530222,-0.49159727525587,-0.776398010659252,-0.549995950218922
9.324868281,0.593940689710737,-0.542029169700869,-0.138307390477541,-0.893651177151957
9.332871719,0.595566384732714,-0.303709410008419,0.666583043327436,0.244720338821093
9.340877461,0.513435363224957,0.186363690505634,0.997773697978959,0.724559006443797
9.348881758,0.526610921773419,0.669055253453813,0.495066522896439,0.0284691531593047
9.356880547,0.617583269080877,0.918270394540583,-0.567193505065683,-0.731977645771776
9.364878945,0.534670901362622,0.931108204922425,-1.40628739183963,0.369006925807713
9.3728775,0.0415220391686299,0.86923534462357,-1.32890860859744,0.270466279600053
9.380877891,-0.807168979533857,0.845047013066991,-0.321922128462369,-0.691841469886208
9.388878672,-1.64071478082442,0.805442556481325,0.911705558884724,0.707704790691058
9.396877461,-2.00931536874291,0.643628727003694,1.54715360506653,1.59443442163641
9.404874375,-1.68308554211669,0.381208359996894,1.29216473122812,1.21997423513489
9.412870625,-0.808223104895254,0.151039588841509,0.469929882651825,0.0389633845727918
9.420868086,0.168205106569652,-0.0261618716299933,-0.418234128068067,-0.931619596729154
9.428864023,0.772133794410266,-0.331168460624662,-1.09023367325147,-0.11380185894516
9.436862031,0.818366729840846,-0.877495465791968,-1.48839205109104,0.450358700824699
9.444860937,0.530412841931182,-1.39881873299169,-1.54905567054564,0.541389477854074
9.45286125,0.338431508602391,-1.3764966849587,-1.14030161604888,-0.0369219938592142
9.460857656,0.497781347001244,-0.559081164035501,-0.27357137120527,-1.04383056418206
9.468854766,0.849383810267629,0.690171861466171,0.737227725785608,0.364794954670254
9.476853203,0.950103568318379,1.61262818824534,1.43013013754832,1.36854842346935
9.484850391,0.474622040764789,1.6462554422346,1.54169202216956,1.52916993984459
9.492847539,-0.471486530991653,0.861340750397102,1.21019372528181,1.06114183310048
9.500841719,-1.40384927888185,-0.117211245960903,0.807434034401562,0.531202743918741
9.508838203,-1.82321289612939,-0.623530608620169,0.534412247913158,0.200995890867063
9.516838555,-1.58057601235996,-0.471915222888066,0.201116844306889,-0.232449645625641
9.52483793,-0.934120248802053,-0.0410154949481362,-0.477718582982555,-0.698077400081842
9.532833594,-0.250525147257588,0.139792102775659,-1.27255628856516,0.181726640268127
9.540831797,0.341412242119446,-0.120267459563991,-1.33659566705603,0.246628607479486
9.54883125,0.948025760998631,-0.597589977544155,-0.0908743485041029,-0.840841375864017
9.556828203,1.56463764603872,-1.00281215444638,1.77567556770815,1.82823124376209
9.5648275,1.86396017025899,-1.2925511389842,2.55756903604169,2.94944054794133
9.572825781,1.46127334084577,-1.59809573575274,1.05885754068855,0.805824115582896
9.580825508,0.389462178384498,-1.93133767749522,-2.13161748966574,1.37936875956692
9.588822812,-0.761072787138126,-2.07272490869369,-4.97103785713262,5.4477748938712
9.596823086,-1.23017077013644,-1.79792724607171,-5.61622866937746,6.37440490099412
9.604821601,-0.666382821614098,-1.18512609322377,-3.8738362714253,3.87703432403313
9.612822305,0.610252791783696,-0.621571075702104,-1.20229161960902,0.0444097588030682
9.620824961,1.85493293963249,-0.449160083344216,0.63655236918976,0.212200972341171
9.628825117,2.40993586327353,-0.601779437451311,0.99191250900541,0.732505689851093
9.636827812,2.09409983479945,-0.63652389700328,0.566444135360689,0.120941760326773
9.644831211,1.25617787327703,-0.188079450305786,0.447538820603037,-0.0659660759789935
9.652832695,0.503898148030787,0.589078532898778,0.982401019177498,0.711129089316578
9.660833633,0.262208727216356,1.09718930919883,1.5584041117671,1.54143156426671
9.668832578,0.438088436501162,0.877389718119716,1.37371705461567,1.27274750180926
9.676835703,0.50917134410603,0.0927136845058218,0.316160717650805,-0.240988733094686
9.684835781,0.0635187840930199,-0.605467850135112,-0.903939245696997,-0.359034366120565
9.6928325,-0.697305748923324,-0.646555056036382,-1.39348112083016,0.361203801069073
9.700832539,-1.0973958178895,0.0529652834283473,-0.831248232355364,-0.332905560515508
9.708833555,-0.715436059202959,1.13061298911639,0.321357189053819,-0.121199663148483
9.716831406,0.124787126301595,2.0679932951937,1.23500182093041,1.11807934820078
9.724832734,0.717812733646245,2.45201732763821,1.32843621284521,1.25622864806673
9.732832578,0.746825529379284,2.11546491722808,0.649376341818861,0.309011113344449
9.740836172,0.539097972157942,1.17738680165926,-0.216517919121437,-0.78351382645068
9.748839141,0.58815025122979,-0.0087968935990408,-0.650442443372645,-0.713767156069486
9.756843516,0.976781772206665,-1.00324185791514,-0.476599679164241,-0.997483512770113
9.764846094,1.34116226469403,-1.47626822714323,0.028107012359074,-0.660552116625611
9.772846328,1.33107779098767,-1.35518324842748,0.495014231161492,-0.00233421713797638
9.780847305,0.97748840805585,-0.837143199331529,0.706898439828961,0.295928081284497
9.788849141,0.565280883564034,-0.263861207643493,0.545929059869772,0.074047384043621
9.796852656,0.253475029633488,0.0669208671589181,-0.0115595744610818,-0.675584804834032
9.804850312,-0.0379678564941528,0.0737282103409841,-0.695546133629854,-0.610018652071509
9.812848242,-0.369190728599151,-0.0331291313386665,-0.928426576927476,-0.285497339433661
9.820845703,-0.563251888874822,0.11310080306322,-0.274338068967246,-0.796874703417936
9.828844648,-0.376879986679546,0.703123271309103,1.00765772797165,0.770451018786636
9.836845781,0.141023240155228,1.5031337582056,1.95634010770524,2.11573709447735
9.84484543,0.588987056117447,1.97480531681508,1.63755886531608,1.67293104561993
9.852846094,0.580556801168796,1.68799219001943,-0.00990294729646291,-0.541377920974764
9.860845469,0.135971814397359,0.665461674686077,-2.03494996177682,1.2549090109617
9.868842891,-0.33817165618584,-0.60916218175053,-3.18588325927563,2.89004255937759
9.876842148,-0.438499432136712,-1.50549093661718,-2.84950632049452,2.41299280438926
9.884841094,-0.0987230852467745,-1.65923886390665,-1.43331621650228,0.39441918091474
9.892841172,0.436038270884886,-1.19826019419,0.0720878311578879,-0.598727269669481
9.90084207,0.88242308485357,-0.612541487482863,0.90127982776126,0.574956290175415
9.908838555,1.11337246141312,-0.366985400895414,1.00138438159943,0.720030932077809
9.916840547,1.13990835045854,-0.556256426708831,0.852254992394569,0.505551022018274
9.924841601,1.02405873578104,-0.864518888755442,0.879160662078671,0.542415110590629
9.932840781,0.868220927677995,-0.868901665146536,1.05887498400333,0.799630884452711
9.940839726,0.832118958887993,-0.442632564969345,1.0232749674497,0.750638576429527
9.948836172,1.04604646950906,0.10969565959702,0.458041664388002,-0.0459037846485333
9.956834609,1.44350645242261,0.323987879837933,-0.56521194481733,-0.790644389634298
9.964835234,1.71952637144892,0.00477345894497273,-1.5624395616234,0.571724258296478
9.972836445,1.52678195782468,-0.579396448153997,-1.9299937617534,1.08627552863326
9.980836172,0.749366832292636,-0.896983487901692,-1.36739545862337,0.277680162156986
9.988833281,-0.379888155833339,-0.580608608469985,-0.146984313418885,-0.784820778996296
9.996834609,-1.38743695837257,0.25704188287775,1.01533445600922,0.81977165992139
10.004834492,-1.80130482809988,1.07355665009449,1.44332013821849,1.44832639295691
10.012835195,-1.39924851493915,1.29839266943584,0.966453681187411,0.780463065734894
10.020834922,-0.362439410668155,0.779714950926653,0.0256981430105188,-0.529085816115466
10.028834648,0.761169733664425,-0.094714945443396,-0.660353943601861,-0.710415530616065
10.036833867,1.35625737688493,-0.721365583186439,-0.640475581551769,-0.752785954719217
10.044834883,1.18810152230074,-0.786411215528848,-0.0560236220145099,-0.791845743006709
10.052834844,0.615710185309786,-0.489179151616689,0.511065328420657,0.0206402831822719
10.060833984,0.248104323206612,-0.256209059853624,0.527353546817674,0.0550522647893304
10.068831523,0.301015912699705,-0.260243316426544,-0.0633175436204961,-0.762419162271675
10.076826406,0.377732401668301,-0.284779230532175,-0.819579701692747,-0.485377108089064
10.084822187,-0.0195756491847626,-0.0459976395086331,-1.17541957164317,0.0323484463915278
10.092819219,-0.838084269314098,0.457650101125536,-0.870501894315618,-0.299008598920323
10.10081457,-1.46194521153668,0.952747361750581,-0.11965815533365,-0.487129322268781
10.108808945,-1.34688101126299,1.16161873483748,0.570493908133453,0.248232449062806
10.116807383,-0.569984142561738,1.01977177697767,0.758411509018299,0.44265989198285
10.124807812,0.278061810896691,0.691076737461089,0.338816772179798,-0.179051519245391
10.132807891,0.673899667845266,0.408029321827181,-0.384207545189549,-0.947427389068899
10.140806601,0.592019036235952,0.256371640067398,-0.87328796828582,-0.398615880036306
10.148801797,0.405930240834148,0.103687398435342,-0.749635197664861,-0.567602057935391
10.156796719,0.436079798114702,-0.226325908640585,-0.109783266208294,-0.830321565410471
10.16479,0.639376251284094,-0.707248614458404,0.548227660811373,0.0715514099869123
10.172783476,0.726767729031107,-1.06209579886794,0.742021154258163,0.347169967677831
10.180777695,0.508163673679406,-0.966010085505339,0.377053783846854,-0.170916624622028
10.188773242,0.0667038628187552,-0.311930502761111,-0.228057350415745,-0.919675410677578
10.196772383,-0.374299213624794,0.665164841035183,-0.596682126538127,-0.644126601257557
10.204772656,-0.674173246396249,1.49506033379776,-0.427778234377306,-0.623042461554264
10.212774023,-0.812117716403151,1.76681821538257,0.167201135051744,-0.249490106033893
10.220775469,-0.747628050656357,1.42151770155524,0.73149391749442,0.430957850583405
10.228776094,-0.379324080705583,0.804029505720155,0.820712871047689,0.512952760504196
10.23677668,0.266588611716948,0.403669718327106,0.333343308278729,-0.198658762942906
10.244775703,0.877432113991864,0.483433106792122,-0.418121896216369,-0.926061606398418
10.25277332,1.03154211483575,0.900563948174681,-0.902431502303765,-0.328647889943577
10.260771055,0.586599021695951,1.24562977142425,-0.738320113477343,-0.505912797818003
10.268769883,-0.161154400606908,1.15662959842255,-0.0348562873600825,-0.579755313355929
10.276771875,-0.734320242564067,0.558844434336262,0.611098451066471,0.235689912956973
10.284774883,-0.867519849538161,-0.309325177503087,0.618009347517169,0.234432277937655
10.292774336,-0.645826601304325,-1.04782696038358,0.0213522654739654,-0.568190133614649
10.300774883,-0.319856204985853,-1.31193829200177,-0.52425488075983,-0.796775575528858
10.308773945,-0.0726634718774289,-1.01254170738987,-0.42956147213094,-0.927487503460271
10.316768711,0.0272008499955099,-0.403564589347237,0.183234399597914,-0.418293566756693
10.324761836,-0.0326250099567192,0.069795570662975,0.602818364564618,0.176765238021315
10.332753164,-0.186619773257276,0.127723149290035,0.329709577207753,-0.191965797866363
10.340748437,-0.238597573076255,-0.0839095398868031,-0.348605351095921,-0.887405665973115
10.348741523,0.0101283463804453,-0.125971834585318,-0.697616431325023,-0.620819607402538
10.356737266,0.480396279898025,0.286211689369226,-0.388909388576407,-0.948654483388399
10.364731328,0.752375391238879,0.949622620681697,0.128740547863405,-0.454888357420244
10.372726211,0.427337241173823,1.30568476815407,0.155706285895926,-0.384826075056355
10.380720391,-0.43454387833666,0.952554629267863,-0.45741351813737,-0.711689371836573
10.3887125,-1.29903984880734,0.0767339903279166,-1.14243742912764,0.076003179309016
10.396708711,-1.59056218005305,-0.648334910897715,-1.19742010809647,0.163907072323937
10.404704922,-1.14314012509514,-0.677169730020664,-0.44667132355784,-0.692873515583678
10.412701055,-0.27772225589321,-0.122761178378706,0.642975853952826,0.239231105171472
10.420698672,0.510721017290075,0.373104244402197,1.41172414396018,1.3166464270429
10.428693047,0.936255032967935,0.28544362221921,1.51719336101156,1.46365183502926
10.436689258,1.03730370107024,-0.327212644123097,1.04183837130401,0.777969582459489
10.444680976,1.00241632361159,-0.964228478592327,0.247070814117346,-0.362100861323683
10.452673672,0.965819139523353,-1.18906027138018,-0.675550650287694,-0.711216129892754
10.460666016,0.944574428505449,-0.959998666660274,-1.63028577003508,0.653037877527393
10.468660273,0.864510481376685,-0.540894072983561,-2.47314577307753,1.85994808005485
10.476654531,0.614846698470296,-0.205969309799596,-2.91931117426379,2.50052727751311
10.484649453,0.143940778025828,-0.0659174727539815,-2.63540321970657,2.09995512691599
10.492644922,-0.450227255462941,-0.0802185603326323,-1.48289619570734,0.479706232113
10.500644062,-0.932308105859423,-0.117959693997979,0.251786435675278,-0.241548696375961
10.508642578,-1.06247963922997,-0.0229319867632973,1.88607549368773,2.02000044517701
10.51664125,-0.762443393015804,0.269416523566066,2.68913901933273,3.1548804395593
10.524639805,-0.190215492655208,0.630742050450174,2.3224091224559,2.62603741697188
10.532637031,0.359185593025069,0.795602705184255,1.08627250628412,0.865005893455057
10.540633984,0.670823027041458,0.579413568840678,-0.226842064401792,-0.885502248487713
10.548627891,0.739944235680748,0.0738204378493174,-0.836927262320463,-0.459527463905518
10.556623906,0.688925228673595,-0.395008381548084,-0.494697242366683,-0.94540488339165
10.564620898,0.604878650415982,-0.545971479594256,0.375245263437713,-0.173250602522902
10.572618281,0.490860015747042,-0.399731465835184,1.0305126544107,0.764032781552083
10.580615039,0.329687708225975,-0.254225686126086,0.984162065956295,0.701697219519132
10.588610742,0.144089189790912,-0.395497949777703,0.320360153196998,-0.23451384123902
10.596608008,-0.00156003716212625,-0.824378341149192,-0.444710710622558,-0.929099778766611
10.604601953,-0.0343790123369053,-1.2634191935624,-0.788663881680718,-0.51047960325528
10.612598789,0.0956746848561572,-1.4136921873157,-0.577884496032477,-0.79226607872461
10.62059457,0.394605992265023,-1.19258018290863,-0.138285302113061,-0.882518022722045
10.628587539,0.804250030859098,-0.757697409271622,0.0311937288227123,-0.668879289297374
10.636582578,1.19480479920259,-0.351351284380942,-0.342010927268863,-1.08378613848
10.64458043,1.40637958553939,-0.113733990741102,-1.08082493750486,-0.119134921722151
10.65258043,1.34046470844844,0.0182876307224422,-1.6933858779815,0.752151362298523
10.660576641,1.01667434103717,0.262628234475936,-1.76689610415407,0.858958881604658
10.66857668,0.517713734413445,0.796918695363935,-1.25765849357464,0.157055652081489
10.676576758,-0.111036869117389,1.55637065057193,-0.431428254114142,-0.685775036381833
10.684573828,-0.866353290821395,2.22183244606044,0.426231608811812,0.0908031412516932
10.692573086,-1.67160207836361,2.43135733885669,1.18196266754379,1.12962692544644
10.700571641,-2.27501006249702,2.03764410683972,1.74815087199297,1.91716659984541
10.708570078,-2.31896734129152,1.2050076802705,1.93144968161423,2.15263290366741
10.716568359,-1.59302984375663,0.285751606876381,1.49032918167271,1.48860531077923
10.724567226,-0.280197401880867,-0.413284730853296,0.369451107722257,-0.144502455717743
10.732566133,1.07153267462172,-0.800879417615628,-1.10012938094612,-0.105059754998815
10.740563008,1.91785954431109,-0.996881243977214,-2.271363886736,1.57878524566429
10.748562773,2.1177039475796,-1.16522887209906,-2.55969007729706,1.99387586531572
10.756560703,1.9595916027701,-1.32715250276474,-1.85707899756066,0.990212442758563
10.764556484,1.80337905241031,-1.33411952902433,-0.63925994376867,-0.720329099455563
10.772550234,1.72948925311905,-1.03671666246489,0.359165750418994,-0.186667959751382
10.780544297,1.52434474338379,-0.469269267544219,0.659765447945371,0.236276922845524
10.788540273,0.955771087307619,0.164663974343735,0.329810566250144,-0.225042686751299
10.796534883,0.0404129726037659,0.690476581571573,-0.127757582063696,-0.737259213634639
10.80452707,-0.932072755477996,1.10980990317281,-0.16876199057662,-0.592001869661519
10.812519805,-1.6065082626272,1.53393545950467,0.374948393916962,0.0504736803228471
10.820514453,-1.79941734686303,1.98785691786673,1.16008661023473,1.09012095500326
10.828510898,-1.57256385804461,2.30588549993346,1.57124962089395,1.64783945117731
10.836508008,-1.12583676337856,2.24309596632073,1.15907221693686,1.06198387525096
10.844502226,-0.642384848527423,1.69494821854638,0.00369828339623563,-0.439089825660938
10.852497226,-0.204751054605142,0.800886198980508,-1.27191338617905,0.198694104419998
10.860491914,0.187339313163381,-0.156600101649432,-1.90951899414944,1.06348922504886
10.86848793,0.536844111292545,-0.934030456801274,-1.56667410931467,0.564678241935294
10.876485664,0.797586297571865,-1.42086323622194,-0.577097790581433,-0.842110083587971
10.884480351,0.910981492030601,-1.61183600168892,0.318562942753061,-0.252655652252118
10.892475508,0.877285842567355,-1.54839684196984,0.538638028306908,0.0595941281259435
10.900469023,0.763066603960651,-1.29209881905177,0.0485980651957887,-0.640932309906099
10.908465195,0.635446279868562,-0.906435286464037,-0.655163121838693,-0.736179611067375
10.916460859,0.50042355773024,-0.417055282305809,-0.915821316892943,-0.357837845707468
10.924457422,0.303061987266834,0.219293181911785,-0.413951504437499,-0.925011252461703
10.932451484,-0.00793693576821398,1.06680263541724,0.580797205915966,0.177761015444362
10.94044668,-0.387356824445741,2.07213296362073,1.41080067220821,1.37447721753804
10.948441719,-0.667341386658199,2.96166956348581,1.52008558645182,1.56773133123893
10.956435664,-0.680487254638547,3.33974615843562,0.860855197875573,0.704461975109228
10.964430391,-0.440912354368309,2.96847580015854,-0.0804426223289653,-0.368178034472215
10.972428086,-0.167310434173501,1.97461151018458,-0.633275146348747,-0.492727848807146
10.980426836,-0.0826661886176122,0.767550994773188,-0.424933564631471,-0.799677722609206
10.98842418,-0.192820338921331,-0.242252991654764,0.321584165201231,-0.212368821521021
10.996420781,-0.282409397539163,-0.867482011914598,0.928293492953414,0.63459607706051
11.004418203,-0.119312272948561,-1.18048651278294,0.763512135529993,0.396429116779331
11.012415351,0.353273064806344,-1.38507854854081,-0.277927007557257,-1.01822652634914
11.020409375,0.994784416848887,-1.60947562850563,-1.63959947998466,0.669935235264597
11.028405742,1.56788569305103,-1.76553247428116,-2.44011214340918,1.81828094660676
11.036403437,1.83725495426827,-1.60411027849781,-2.10283301930116,1.33950572000877
11.044401133,1.64791207522088,-0.937672646991896,-0.788675335944186,-0.532994967138419
11.052399141,1.01971357952502,0.153927579697615,0.733333000928558,0.345200515277442
11.060395351,0.170893005607623,1.31410530196079,1.66143328720883,1.6934541348198
11.068392773,-0.63440089228859,2.12363841768524,1.70401733591643,1.79183496177222
11.076391992,-1.28348577773306,2.37058010566541,1.18637078265372,1.11196422097454
11.084391719,-1.82099925900458,2.13185250513341,0.724664208257151,0.529976752625684
11.092390391,-2.26680650904069,1.61328500829948,0.736093609969923,0.559063569524724
11.100386289,-2.47667996801738,0.973100948315153,1.11359853641631,1.0437244466611
11.108381094,-2.20401025131475,0.307564371289165,1.33323521195615,1.30680735787436
11.116376133,-1.31084381189459,-0.308183310798553,0.902120117340937,0.651831007434696
11.124372422,0.0483434484427909,-0.857414880451117,-0.247018718427356,-0.953047201981379
11.132368008,1.44669983114768,-1.40260565688474,-1.67499298661904,0.72176719358814
11.140366289,2.43382863899386,-1.96670380999792,-2.68432908248113,2.18235788996076
11.148365351,2.79686559303724,-2.3881271862149,-2.74378965144927,2.28023601462574
11.156363281,2.59098247977842,-2.37437943655873,-1.831713751205,0.986758017937809
11.164360391,1.97644791813157,-1.76202420142811,-0.472057750838365,-0.866093644205839
11.17235457,1.09351750458618,-0.717954121579754,0.605720777301743,0.151894983519549
11.180349961,0.0747733041666268,0.356193095253517,0.961553190996927,0.684372560283203
11.188345156,-0.910944814631315,1.14056452975648,0.708961827991635,0.39859125498634
11.19634332,-1.69863113793449,1.60255033324384,0.371552641162036,0.0604767391800625
